STUDYID,USUBJID,SUBJID,RFSTDTC,RFENDTC,RFXSTDTC,RFXENDTC,RFICDTC,RFPENDTC,DTHDTC,DTHFL,SITEID,AGE,AGEU,SEX,RACE,ETHNIC,ARMCD,ARM,ACTARMCD,ACTARM,COUNTRY,DMDTC,DMDY,AGEGR9,AGEGR9N,TRTSDTM,TRTSTMF,TRTEDTM,TRTETMF,ITTFL,LSTALVDT,LALVSEQ,LALVDOM,LALVVAR
CDISCPILOT01,01-701-1015,1015,2014-01-02,2014-07-02,2014-01-02,2014-07-02,NA,2014-07-02T11:45,NA,NA,701,63,YEARS,F,WHITE,HISPANIC OR LATINO,Pbo,Placebo,Pbo,Placebo,USA,2013-12-26,-7,>50,3,2014-01-02T00:00:00Z,H,2014-07-02T23:59:59Z,H,Y,2014-07-02T23:59:59Z,NA,ADSL,TRTEDTM
CDISCPILOT01,01-701-1023,1023,2012-08-05,2012-09-02,2012-08-05,2012-09-01,NA,2013-02-18,NA,NA,701,64,YEARS,M,WHITE,HISPANIC OR LATINO,Pbo,Placebo,Pbo,Placebo,USA,2012-07-22,-14,>50,3,2012-08-05T00:00:00Z,H,2012-09-01T23:59:59Z,H,Y,2013-02-18T00:00:00Z,71,VS,VSDTC
CDISCPILOT01,01-701-1028,1028,2013-07-19,2014-01-14,2013-07-19,2014-01-14,NA,2014-01-14T11:10,NA,NA,701,71,YEARS,M,WHITE,NOT HISPANIC OR LATINO,Xan_Hi,Xanomeline High Dose,Xan_Hi,Xanomeline High Dose,USA,2013-07-11,-8,>50,3,2013-07-19T00:00:00Z,H,2014-01-14T23:59:59Z,H,Y,2014-01-14T23:59:59Z,NA,ADSL,TRTEDTM
CDISCPILOT01,01-701-1033,1033,2014-03-18,2014-04-14,2014-03-18,2014-03-31,NA,2014-09-15,NA,NA,701,74,YEARS,M,WHITE,NOT HISPANIC OR LATINO,Xan_Lo,Xanomeline Low Dose,Xan_Lo,Xanomeline Low Dose,USA,2014-03-10,-8,>50,3,2014-03-18T00:00:00Z,H,2014-03-31T23:59:59Z,H,Y,2014-09-15T00:00:00Z,71,VS,VSDTC
CDISCPILOT01,01-701-1034,1034,2014-07-01,2014-12-30,2014-07-01,2014-12-30,NA,2014-12-30T09:50,NA,NA,701,77,YEARS,F,WHITE,NOT HISPANIC OR LATINO,Xan_Hi,Xanomeline High Dose,Xan_Hi,Xanomeline High Dose,USA,2014-06-24,-7,>50,3,2014-07-01T00:00:00Z,H,2014-12-30T23:59:59Z,H,Y,2014-12-30T23:59:59Z,NA,ADSL,TRTEDTM
CDISCPILOT01,01-701-1047,1047,2013-02-12,2013-03-29,2013-02-12,2013-03-09,NA,2013-07-28,NA,NA,701,85,YEARS,F,WHITE,NOT HISPANIC OR LATINO,Pbo,Placebo,Pbo,Placebo,USA,2013-01-22,-21,>50,3,2013-02-12T00:00:00Z,H,2013-03-09T23:59:59Z,H,Y,2013-07-28T00:00:00Z,80,VS,VSDTC
CDISCPILOT01,01-701-1057,1057,NA,NA,NA,NA,NA,2013-12-27,NA,NA,701,59,YEARS,F,WHITE,HISPANIC OR LATINO,Scrnfail,Screen Failure,Scrnfail,Screen Failure,USA,2013-12-20,NA,>50,3,NA,NA,NA,NA,Y,2013-12-20T00:00:00Z,1,DS,DSSTDTC
CDISCPILOT01,01-701-1097,1097,2014-01-01,2014-07-09,2014-01-01,2014-07-09,NA,2014-07-09T09:39,NA,NA,701,68,YEARS,M,WHITE,NOT HISPANIC OR LATINO,Xan_Lo,Xanomeline Low Dose,Xan_Lo,Xanomeline Low Dose,USA,2013-12-23,-9,>50,3,2014-01-01T00:00:00Z,H,2014-07-09T23:59:59Z,H,Y,2014-07-09T23:59:59Z,NA,ADSL,TRTEDTM
CDISCPILOT01,01-701-1111,1111,2012-09-07,2012-09-17,2012-09-07,2012-09-16,NA,2013-02-22,NA,NA,701,81,YEARS,F,WHITE,NOT HISPANIC OR LATINO,Xan_Lo,Xanomeline Low Dose,Xan_Lo,Xanomeline Low Dose,USA,2012-08-25,-13,>50,3,2012-09-07T00:00:00Z,H,2012-09-16T23:59:59Z,H,Y,2013-02-22T00:00:00Z,51,VS,VSDTC
CDISCPILOT01,01-701-1115,1115,2012-11-30,2013-01-23,2012-11-30,2013-01-23,NA,2013-05-20,NA,NA,701,84,YEARS,M,WHITE,NOT HISPANIC OR LATINO,Xan_Lo,Xanomeline Low Dose,Xan_Lo,Xanomeline Low Dose,USA,2012-11-23,-7,>50,3,2012-11-30T00:00:00Z,H,2013-01-23T23:59:59Z,H,Y,2013-05-20T00:00:00Z,101,VS,VSDTC
CDISCPILOT01,01-701-1118,1118,2014-03-12,2014-09-09,2014-03-12,2014-09-09,NA,2014-09-09T13:28,NA,NA,701,52,YEARS,M,WHITE,NOT HISPANIC OR LATINO,Pbo,Placebo,Pbo,Placebo,USA,2014-02-27,-13,>50,3,2014-03-12T00:00:00Z,H,2014-09-09T23:59:59Z,H,Y,2014-09-09T23:59:59Z,NA,ADSL,TRTEDTM
CDISCPILOT01,01-701-1130,1130,2014-02-15,2014-08-16,2014-02-15,2014-08-16,NA,2014-08-16T13:10,NA,NA,701,84,YEARS,M,WHITE,NOT HISPANIC OR LATINO,Pbo,Placebo,Pbo,Placebo,USA,2014-02-09,-6,>50,3,2014-02-15T00:00:00Z,H,2014-08-16T23:59:59Z,H,Y,2014-08-16T23:59:59Z,NA,ADSL,TRTEDTM
CDISCPILOT01,01-701-1133,1133,2012-10-28,2013-04-29,2012-10-28,2013-04-28,NA,2013-04-29T10:13,NA,NA,701,81,YEARS,F,WHITE,NOT HISPANIC OR LATINO,Xan_Hi,Xanomeline High Dose,Xan_Hi,Xanomeline High Dose,USA,2012-10-23,-5,>50,3,2012-10-28T00:00:00Z,H,2013-04-28T23:59:59Z,H,Y,2013-04-29T00:00:00Z,152,VS,VSDTC
CDISCPILOT01,01-701-1145,1145,NA,NA,NA,NA,NA,2013-09-19,NA,NA,701,57,YEARS,F,WHITE,NOT HISPANIC OR LATINO,Scrnfail,Screen Failure,Scrnfail,Screen Failure,USA,2013-09-05,NA,>50,3,NA,NA,NA,NA,Y,2013-09-05T00:00:00Z,1,DS,DSSTDTC
CDISCPILOT01,01-701-1146,1146,2013-05-20,2013-06-30,2013-05-20,2013-06-26,NA,2013-07-15,NA,NA,701,75,YEARS,F,WHITE,NOT HISPANIC OR LATINO,Xan_Hi,Xanomeline High Dose,Xan_Hi,Xanomeline High Dose,USA,2013-05-07,-13,>50,3,2013-05-20T00:00:00Z,H,2013-06-26T23:59:59Z,H,Y,2013-06-30T00:00:00Z,86,VS,VSDTC
CDISCPILOT01,01-701-1148,1148,2013-08-23,2014-02-20,2013-08-23,2014-02-20,NA,2014-02-20T15:07,NA,NA,701,57,YEARS,M,WHITE,NOT HISPANIC OR LATINO,Xan_Hi,Xanomeline High Dose,Xan_Hi,Xanomeline High Dose,USA,2013-08-14,-9,>50,3,2013-08-23T00:00:00Z,H,2014-02-20T23:59:59Z,H,Y,2014-02-20T23:59:59Z,NA,ADSL,TRTEDTM
CDISCPILOT01,01-701-1153,1153,2013-09-23,2014-04-01,2013-09-23,2014-03-16,NA,2014-04-01T14:25,NA,NA,701,79,YEARS,F,WHITE,NOT HISPANIC OR LATINO,Pbo,Placebo,Pbo,Placebo,USA,2013-09-06,-17,>50,3,2013-09-23T00:00:00Z,H,2014-03-16T23:59:59Z,H,Y,2014-04-01T00:00:00Z,152,VS,VSDTC
CDISCPILOT01,01-701-1162,1162,NA,NA,NA,NA,NA,2013-04-18,NA,NA,701,82,YEARS,F,WHITE,NOT HISPANIC OR LATINO,Scrnfail,Screen Failure,Scrnfail,Screen Failure,USA,2013-04-18,NA,>50,3,NA,NA,NA,NA,Y,2013-04-18T00:00:00Z,1,DS,DSSTDTC
CDISCPILOT01,01-701-1176,1176,NA,NA,NA,NA,NA,2012-09-30,NA,NA,701,62,YEARS,F,AMERICAN INDIAN OR ALASKA NATIVE,NOT HISPANIC OR LATINO,Scrnfail,Screen Failure,Scrnfail,Screen Failure,USA,2012-09-30,NA,>50,3,NA,NA,NA,NA,Y,2012-09-30T00:00:00Z,1,DS,DSSTDTC
CDISCPILOT01,01-701-1180,1180,2013-02-12,2013-03-23,2013-02-12,2013-03-18,NA,2013-04-07,NA,NA,701,56,YEARS,M,WHITE,NOT HISPANIC OR LATINO,Xan_Hi,Xanomeline High Dose,Xan_Hi,Xanomeline High Dose,USA,2013-01-28,-15,>50,3,2013-02-12T00:00:00Z,H,2013-03-18T23:59:59Z,H,Y,2013-03-23T00:00:00Z,86,VS,VSDTC
CDISCPILOT01,01-701-1181,1181,2013-12-05,2013-12-12,2013-12-05,2013-12-09,NA,2014-05-23,NA,NA,701,79,YEARS,F,WHITE,NOT HISPANIC OR LATINO,Xan_Hi,Xanomeline High Dose,Xan_Lo,Xanomeline Low Dose,USA,2013-11-26,-9,>50,3,2013-12-05T00:00:00Z,H,2013-12-09T23:59:59Z,H,Y,2014-05-23T00:00:00Z,51,VS,VSDTC
CDISCPILOT01,01-701-1188,1188,2013-02-15,2013-03-25,2013-02-15,2013-03-24,NA,2013-08-04,NA,NA,701,71,YEARS,M,WHITE,NOT HISPANIC OR LATINO,Xan_Lo,Xanomeline Low Dose,Xan_Lo,Xanomeline Low Dose,USA,2013-02-03,-12,>50,3,2013-02-15T00:00:00Z,H,2013-03-24T23:59:59Z,H,Y,2013-08-04T00:00:00Z,91,VS,VSDTC
CDISCPILOT01,01-701-1192,1192,2012-07-22,2013-01-20,2012-07-22,2013-01-20,NA,2013-01-20T15:47,NA,NA,701,80,YEARS,F,WHITE,NOT HISPANIC OR LATINO,Xan_Lo,Xanomeline Low Dose,Xan_Lo,Xanomeline Low Dose,USA,2012-07-08,-14,>50,3,2012-07-22T00:00:00Z,H,2013-01-20T23:59:59Z,H,Y,2013-01-20T23:59:59Z,NA,ADSL,TRTEDTM
CDISCPILOT01,01-701-1203,1203,2013-02-02,2013-08-03,2013-02-02,2013-08-03,NA,2013-08-03T10:10,NA,NA,701,81,YEARS,F,BLACK OR AFRICAN AMERICAN,NOT HISPANIC OR LATINO,Pbo,Placebo,Pbo,Placebo,USA,2013-01-25,-8,>50,3,2013-02-02T00:00:00Z,H,2013-08-03T23:59:59Z,H,Y,2013-08-03T23:59:59Z,NA,ADSL,TRTEDTM
CDISCPILOT01,01-701-1211,1211,2012-11-15,2013-01-14,2012-11-15,2013-01-12,NA,2013-01-14,2013-01-14,Y,701,76,YEARS,F,WHITE,NOT HISPANIC OR LATINO,Xan_Lo,Xanomeline Low Dose,Xan_Lo,Xanomeline Low Dose,USA,2012-10-30,-16,>50,3,2012-11-15T00:00:00Z,H,2013-01-12T23:59:59Z,H,Y,2013-01-14T00:00:00Z,9,AE,AESTDTC
CDISCPILOT01,01-701-1234,1234,2013-03-30,2013-09-22,2013-03-30,2013-09-22,NA,2013-09-22T09:25,NA,NA,701,69,YEARS,M,WHITE,NOT HISPANIC OR LATINO,Pbo,Placebo,Pbo,Placebo,USA,2013-03-20,-10,>50,3,2013-03-30T00:00:00Z,H,2013-09-22T23:59:59Z,H,Y,2013-09-22T23:59:59Z,NA,ADSL,TRTEDTM
CDISCPILOT01,01-701-1239,1239,2014-01-11,2014-07-11,2014-01-11,2014-07-10,NA,2014-07-11T15:40,NA,NA,701,56,YEARS,M,WHITE,HISPANIC OR LATINO,Xan_Hi,Xanomeline High Dose,Xan_Hi,Xanomeline High Dose,USA,2013-12-28,-14,>50,3,2014-01-11T00:00:00Z,H,2014-07-10T23:59:59Z,H,Y,2014-07-11T00:00:00Z,152,VS,VSDTC
CDISCPILOT01,01-701-1240,1240,NA,NA,NA,NA,NA,2013-09-24,NA,NA,701,57,YEARS,F,BLACK OR AFRICAN AMERICAN,NOT HISPANIC OR LATINO,Scrnfail,Screen Failure,Scrnfail,Screen Failure,USA,2013-09-22,NA,>50,3,NA,NA,NA,NA,Y,2013-09-22T00:00:00Z,1,DS,DSSTDTC
CDISCPILOT01,01-701-1275,1275,2014-02-07,2014-06-14,2014-02-07,2014-05-31,NA,2014-06-14T12:35,NA,NA,701,61,YEARS,M,AMERICAN INDIAN OR ALASKA NATIVE,NOT HISPANIC OR LATINO,Xan_Hi,Xanomeline High Dose,Xan_Hi,Xanomeline High Dose,USA,2014-01-25,-13,>50,3,2014-02-07T00:00:00Z,H,2014-05-31T23:59:59Z,H,Y,2014-06-14T00:00:00Z,119,VS,VSDTC
CDISCPILOT01,01-701-1287,1287,2014-01-25,2014-07-26,2014-01-25,2014-07-26,NA,2014-07-26T13:15,NA,NA,701,56,YEARS,F,WHITE,HISPANIC OR LATINO,Xan_Hi,Xanomeline High Dose,Xan_Hi,Xanomeline High Dose,USA,2014-01-17,-8,>50,3,2014-01-25T00:00:00Z,H,2014-07-26T23:59:59Z,H,Y,2014-07-26T23:59:59Z,NA,ADSL,TRTEDTM
CDISCPILOT01,01-701-1294,1294,2013-03-24,2013-06-14,2013-03-24,2013-06-14,NA,2013-10-08,NA,NA,701,67,YEARS,M,WHITE,NOT HISPANIC OR LATINO,Xan_Lo,Xanomeline Low Dose,Xan_Lo,Xanomeline Low Dose,USA,2013-03-17,-7,>50,3,2013-03-24T00:00:00Z,H,2013-06-14T23:59:59Z,H,Y,2013-10-08T00:00:00Z,111,VS,VSDTC
CDISCPILOT01,01-701-1302,1302,2013-08-29,2013-11-05,2013-08-29,2013-11-05,NA,2014-02-13,NA,NA,701,61,YEARS,M,WHITE,NOT HISPANIC OR LATINO,Xan_Hi,Xanomeline High Dose,Xan_Hi,Xanomeline High Dose,USA,2013-08-20,-9,>50,3,2013-08-29T00:00:00Z,H,2013-11-05T23:59:59Z,H,Y,2014-02-13T00:00:00Z,111,VS,VSDTC
CDISCPILOT01,01-701-1307,1307,NA,NA,NA,NA,NA,2014-01-02,NA,NA,701,80,YEARS,F,WHITE,NOT HISPANIC OR LATINO,Scrnfail,Screen Failure,Scrnfail,Screen Failure,USA,2013-12-08,NA,>50,3,NA,NA,NA,NA,Y,2013-12-08T00:00:00Z,1,DS,DSSTDTC
CDISCPILOT01,01-701-1317,1317,2014-05-22,2014-11-20,2014-05-22,2014-11-20,NA,2014-11-20T11:54,NA,NA,701,68,YEARS,M,WHITE,NOT HISPANIC OR LATINO,Xan_Lo,Xanomeline Low Dose,Xan_Lo,Xanomeline Low Dose,USA,2014-05-10,-12,>50,3,2014-05-22T00:00:00Z,H,2014-11-20T23:59:59Z,H,Y,2014-11-20T23:59:59Z,NA,ADSL,TRTEDTM
CDISCPILOT01,01-701-1324,1324,2012-10-02,2013-04-02,2012-10-02,2013-04-02,NA,2013-04-02T11:35,NA,NA,701,79,YEARS,M,WHITE,NOT HISPANIC OR LATINO,Xan_Lo,Xanomeline Low Dose,Xan_Lo,Xanomeline Low Dose,USA,2012-09-16,-16,>50,3,2012-10-02T00:00:00Z,H,2013-04-02T23:59:59Z,H,Y,2013-04-02T23:59:59Z,NA,ADSL,TRTEDTM
CDISCPILOT01,01-701-1341,1341,2013-01-05,2013-02-07,2013-01-05,2013-01-26,NA,2013-02-21,NA,NA,701,51,YEARS,M,WHITE,NOT HISPANIC OR LATINO,Xan_Lo,Xanomeline Low Dose,Xan_Lo,Xanomeline Low Dose,USA,2012-12-22,-14,>50,3,2013-01-05T00:00:00Z,H,2013-01-26T23:59:59Z,H,Y,2013-02-07T00:00:00Z,65,VS,VSDTC
CDISCPILOT01,01-701-1345,1345,2013-10-08,2014-03-18,2013-10-08,2014-03-18,NA,2014-03-18T14:12,NA,NA,701,63,YEARS,F,WHITE,NOT HISPANIC OR LATINO,Pbo,Placebo,Pbo,Placebo,USA,2013-10-01,-7,>50,3,2013-10-08T00:00:00Z,H,2014-03-18T23:59:59Z,H,Y,2014-03-18T23:59:59Z,NA,ADSL,TRTEDTM
CDISCPILOT01,01-701-1356,1356,NA,NA,NA,NA,NA,2014-05-28,NA,NA,701,54,YEARS,F,WHITE,HISPANIC OR LATINO,Scrnfail,Screen Failure,Scrnfail,Screen Failure,USA,2014-04-01,NA,>50,3,NA,NA,NA,NA,Y,2014-04-01T00:00:00Z,1,DS,DSSTDTC
CDISCPILOT01,01-701-1360,1360,2013-07-31,2013-08-14,2013-07-31,2013-08-05,NA,2014-02-11,NA,NA,701,67,YEARS,M,WHITE,NOT HISPANIC OR LATINO,Xan_Hi,Xanomeline High Dose,Xan_Lo,Xanomeline Low Dose,USA,2013-07-24,-7,>50,3,2013-07-31T00:00:00Z,H,2013-08-05T23:59:59Z,H,Y,2014-02-11T00:00:00Z,51,VS,VSDTC
CDISCPILOT01,01-701-1363,1363,2013-05-30,2013-11-27,2013-05-30,2013-11-27,NA,2013-11-27T10:00,NA,NA,701,81,YEARS,F,BLACK OR AFRICAN AMERICAN,NOT HISPANIC OR LATINO,Pbo,Placebo,Pbo,Placebo,USA,2013-05-20,-10,>50,3,2013-05-30T00:00:00Z,H,2013-11-27T23:59:59Z,H,Y,2013-11-27T23:59:59Z,NA,ADSL,TRTEDTM
CDISCPILOT01,01-701-1369,1369,NA,NA,NA,NA,NA,2013-09-30,NA,NA,701,74,YEARS,M,WHITE,NOT HISPANIC OR LATINO,Scrnfail,Screen Failure,Scrnfail,Screen Failure,USA,2013-09-18,NA,>50,3,NA,NA,NA,NA,Y,2013-09-18T00:00:00Z,1,DS,DSSTDTC
CDISCPILOT01,01-701-1383,1383,2013-02-04,2013-08-06,2013-02-04,2013-08-06,NA,2013-08-06T12:00,NA,NA,701,72,YEARS,F,WHITE,NOT HISPANIC OR LATINO,Xan_Hi,Xanomeline High Dose,Xan_Hi,Xanomeline High Dose,USA,2013-01-22,-13,>50,3,2013-02-04T00:00:00Z,H,2013-08-06T23:59:59Z,H,Y,2013-08-06T23:59:59Z,NA,ADSL,TRTEDTM
CDISCPILOT01,01-701-1386,1386,NA,NA,NA,NA,NA,2014-01-07,NA,NA,701,71,YEARS,M,WHITE,NOT HISPANIC OR LATINO,Scrnfail,Screen Failure,Scrnfail,Screen Failure,USA,2013-12-28,NA,>50,3,NA,NA,NA,NA,Y,2013-12-28T00:00:00Z,1,DS,DSSTDTC
CDISCPILOT01,01-701-1387,1387,2014-03-12,2014-03-25,2014-03-12,2014-03-25,NA,2014-08-27,NA,NA,701,87,YEARS,F,WHITE,NOT HISPANIC OR LATINO,Pbo,Placebo,Pbo,Placebo,USA,2014-02-23,-17,>50,3,2014-03-12T00:00:00Z,H,2014-03-25T23:59:59Z,H,Y,2014-08-27T00:00:00Z,51,VS,VSDTC
CDISCPILOT01,01-701-1392,1392,2012-10-28,2013-04-28,2012-10-28,2013-04-28,NA,2013-04-28T11:30,NA,NA,701,78,YEARS,M,WHITE,NOT HISPANIC OR LATINO,Pbo,Placebo,Pbo,Placebo,USA,2012-10-17,-11,>50,3,2012-10-28T00:00:00Z,H,2013-04-28T23:59:59Z,H,Y,2013-04-28T23:59:59Z,NA,ADSL,TRTEDTM
CDISCPILOT01,01-701-1411,1411,NA,NA,NA,NA,NA,2012-11-24,NA,NA,701,76,YEARS,M,BLACK OR AFRICAN AMERICAN,NOT HISPANIC OR LATINO,Scrnfail,Screen Failure,Scrnfail,Screen Failure,USA,2012-11-14,NA,>50,3,NA,NA,NA,NA,Y,2012-11-14T00:00:00Z,1,DS,DSSTDTC
CDISCPILOT01,01-701-1415,1415,2013-09-23,2014-03-24,2013-09-23,2014-03-24,NA,2014-03-24T12:34,NA,NA,701,85,YEARS,M,WHITE,NOT HISPANIC OR LATINO,Pbo,Placebo,Pbo,Placebo,USA,2013-09-15,-8,>50,3,2013-09-23T00:00:00Z,H,2014-03-24T23:59:59Z,H,Y,2014-03-24T23:59:59Z,NA,ADSL,TRTEDTM
CDISCPILOT01,01-701-1429,1429,2013-03-19,2013-04-30,2013-03-19,2013-04-30,NA,2013-04-30T12:22,NA,NA,701,84,YEARS,F,WHITE,NOT HISPANIC OR LATINO,Xan_Lo,Xanomeline Low Dose,Xan_Lo,Xanomeline Low Dose,USA,2013-02-25,-22,>50,3,2013-03-19T00:00:00Z,H,2013-04-30T23:59:59Z,H,Y,2013-04-30T23:59:59Z,NA,ADSL,TRTEDTM
CDISCPILOT01,01-701-1440,1440,2013-08-08,2014-02-05,2013-08-08,2014-02-05,NA,2014-02-05T11:25,NA,NA,701,70,YEARS,M,WHITE,NOT HISPANIC OR LATINO,Pbo,Placebo,Pbo,Placebo,USA,2013-07-24,-15,>50,3,2013-08-08T00:00:00Z,H,2014-02-05T23:59:59Z,H,Y,2014-02-05T23:59:59Z,NA,ADSL,TRTEDTM
CDISCPILOT01,01-701-1442,1442,2013-10-26,2014-04-26,2013-10-26,2014-04-26,NA,2014-04-26T10:00,NA,NA,701,57,YEARS,F,BLACK OR AFRICAN AMERICAN,NOT HISPANIC OR LATINO,Xan_Lo,Xanomeline Low Dose,Xan_Lo,Xanomeline Low Dose,USA,2013-10-17,-9,>50,3,2013-10-26T00:00:00Z,H,2014-04-26T23:59:59Z,H,Y,2014-04-26T23:59:59Z,NA,ADSL,TRTEDTM
CDISCPILOT01,01-701-1444,1444,2013-01-05,2013-02-13,2013-01-05,2013-02-12,NA,2013-06-20,NA,NA,701,63,YEARS,M,WHITE,HISPANIC OR LATINO,Xan_Hi,Xanomeline High Dose,Xan_Hi,Xanomeline High Dose,USA,2012-12-31,-5,>50,3,2013-01-05T00:00:00Z,H,2013-02-12T23:59:59Z,H,Y,2013-06-20T00:00:00Z,91,VS,VSDTC
CDISCPILOT01,01-702-1082,1082,2013-07-26,2013-11-17,2013-07-26,2013-10-13,NA,2013-11-17T12:20,NA,NA,702,84,YEARS,F,WHITE,NOT HISPANIC OR LATINO,Xan_Lo,Xanomeline Low Dose,Xan_Lo,Xanomeline Low Dose,USA,2013-07-03,-23,>50,3,2013-07-26T00:00:00Z,H,2013-10-13T23:59:59Z,H,Y,2013-11-17T00:00:00Z,106,VS,VSDTC
CDISCPILOT01,01-703-1042,1042,2013-03-02,2013-08-31,2013-03-02,2013-08-31,NA,2013-08-31T11:00,NA,NA,703,64,YEARS,M,WHITE,NOT HISPANIC OR LATINO,Pbo,Placebo,Pbo,Placebo,USA,2013-02-23,-7,>50,3,2013-03-02T00:00:00Z,H,2013-08-31T23:59:59Z,H,Y,2013-08-31T23:59:59Z,NA,ADSL,TRTEDTM
CDISCPILOT01,01-703-1076,1076,2013-10-25,2013-12-24,2013-10-25,2013-12-24,NA,2014-01-21,NA,NA,703,69,YEARS,M,WHITE,NOT HISPANIC OR LATINO,Xan_Hi,Xanomeline High Dose,Xan_Hi,Xanomeline High Dose,USA,2013-10-17,-8,>50,3,2013-10-25T00:00:00Z,H,2013-12-24T23:59:59Z,H,Y,2013-12-24T23:59:59Z,NA,ADSL,TRTEDTM
CDISCPILOT01,01-703-1086,1086,2012-09-02,2012-12-24,2012-09-02,2012-12-04,NA,2013-03-26,NA,NA,703,71,YEARS,M,WHITE,NOT HISPANIC OR LATINO,Xan_Lo,Xanomeline Low Dose,Xan_Lo,Xanomeline Low Dose,USA,2012-08-22,-11,>50,3,2012-09-02T00:00:00Z,H,2012-12-04T23:59:59Z,H,Y,2013-03-26T00:00:00Z,121,VS,VSDTC
CDISCPILOT01,01-703-1096,1096,2013-01-25,2013-03-29,2013-01-25,2013-03-16,NA,2013-03-29,NA,NA,703,81,YEARS,F,WHITE,NOT HISPANIC OR LATINO,Pbo,Placebo,Pbo,Placebo,USA,2012-12-19,-37,>50,3,2013-01-25T00:00:00Z,H,2013-03-16T23:59:59Z,H,Y,2013-03-29T00:00:00Z,3,DS,DSSTDTC
CDISCPILOT01,01-703-1100,1100,2013-03-13,2013-09-14,2013-03-13,2013-09-14,NA,2013-09-14T15:00,NA,NA,703,84,YEARS,F,WHITE,NOT HISPANIC OR LATINO,Pbo,Placebo,Pbo,Placebo,USA,2013-02-28,-13,>50,3,2013-03-13T00:00:00Z,H,2013-09-14T23:59:59Z,H,Y,2013-09-14T23:59:59Z,NA,ADSL,TRTEDTM
CDISCPILOT01,01-703-1119,1119,2013-02-20,2013-06-13,2013-02-20,2013-06-13,NA,2013-08-24,NA,NA,703,81,YEARS,F,WHITE,NOT HISPANIC OR LATINO,Xan_Lo,Xanomeline Low Dose,Xan_Lo,Xanomeline Low Dose,USA,2013-02-02,-18,>50,3,2013-02-20T00:00:00Z,H,2013-06-13T23:59:59Z,H,Y,2013-08-24T00:00:00Z,121,VS,VSDTC
CDISCPILOT01,01-703-1175,1175,2013-12-20,2013-12-31,2013-12-20,2013-12-26,NA,2013-12-31T13:15,NA,NA,703,75,YEARS,M,WHITE,NOT HISPANIC OR LATINO,Pbo,Placebo,Pbo,Placebo,USA,2013-12-13,-7,>50,3,2013-12-20T00:00:00Z,H,2013-12-26T23:59:59Z,H,Y,2013-12-31T00:00:00Z,44,VS,VSDTC
CDISCPILOT01,01-703-1182,1182,2013-10-17,2013-12-12,2013-10-17,2013-12-11,NA,2014-01-14,NA,NA,703,84,YEARS,M,WHITE,NOT HISPANIC OR LATINO,Xan_Lo,Xanomeline Low Dose,Xan_Lo,Xanomeline Low Dose,USA,2013-10-08,-9,>50,3,2013-10-17T00:00:00Z,H,2013-12-11T23:59:59Z,H,Y,2013-12-12T00:00:00Z,87,VS,VSDTC
CDISCPILOT01,01-703-1197,1197,2013-06-16,2013-07-22,2013-06-16,2013-06-29,NA,2013-07-22,NA,NA,703,76,YEARS,F,BLACK OR AFRICAN AMERICAN,NOT HISPANIC OR LATINO,Xan_Lo,Xanomeline Low Dose,Xan_Lo,Xanomeline Low Dose,USA,2013-06-01,-15,>50,3,2013-06-16T00:00:00Z,H,2013-06-29T23:59:59Z,H,Y,2013-07-22T00:00:00Z,44,VS,VSDTC
CDISCPILOT01,01-703-1210,1210,2013-03-16,2013-09-06,2013-03-16,2013-09-06,NA,2013-09-06T13:30,NA,NA,703,72,YEARS,F,WHITE,NOT HISPANIC OR LATINO,Pbo,Placebo,Pbo,Placebo,USA,2013-03-08,-8,>50,3,2013-03-16T00:00:00Z,H,2013-09-06T23:59:59Z,H,Y,2013-09-06T23:59:59Z,NA,ADSL,TRTEDTM
CDISCPILOT01,01-703-1258,1258,2012-07-20,2013-01-21,2012-07-20,2013-01-11,NA,2013-01-28,NA,NA,703,78,YEARS,F,WHITE,NOT HISPANIC OR LATINO,Xan_Hi,Xanomeline High Dose,Xan_Hi,Xanomeline High Dose,USA,2012-07-10,-10,>50,3,2012-07-20T00:00:00Z,H,2013-01-11T23:59:59Z,H,Y,2013-01-21T00:00:00Z,152,VS,VSDTC
CDISCPILOT01,01-703-1279,1279,2013-05-13,2013-06-22,2013-05-13,2013-06-03,NA,2013-06-22,NA,NA,703,72,YEARS,F,WHITE,NOT HISPANIC OR LATINO,Xan_Lo,Xanomeline Low Dose,Xan_Lo,Xanomeline Low Dose,USA,2013-04-27,-16,>50,3,2013-05-13T00:00:00Z,H,2013-06-03T23:59:59Z,H,Y,2013-06-22T00:00:00Z,44,VS,VSDTC
CDISCPILOT01,01-703-1295,1295,2013-11-21,2014-05-19,2013-11-21,2014-04-19,NA,2014-05-19T14:45,NA,NA,703,88,YEARS,F,WHITE,NOT HISPANIC OR LATINO,Xan_Hi,Xanomeline High Dose,Xan_Hi,Xanomeline High Dose,USA,2013-10-24,-28,>50,3,2013-11-21T00:00:00Z,H,2014-04-19T23:59:59Z,H,Y,2014-05-19T00:00:00Z,130,VS,VSDTC
CDISCPILOT01,01-703-1299,1299,2012-09-12,2013-03-13,2012-09-12,2013-03-13,NA,2013-03-27,NA,NA,703,81,YEARS,F,WHITE,NOT HISPANIC OR LATINO,Pbo,Placebo,Pbo,Placebo,USA,2012-09-07,-5,>50,3,2012-09-12T00:00:00Z,H,2013-03-13T23:59:59Z,H,Y,2013-03-13T23:59:59Z,NA,ADSL,TRTEDTM
CDISCPILOT01,01-703-1335,1335,2014-03-17,2014-05-24,2014-03-17,2014-05-07,NA,2014-05-24T12:15,NA,NA,703,67,YEARS,F,BLACK OR AFRICAN AMERICAN,NOT HISPANIC OR LATINO,Xan_Hi,Xanomeline High Dose,Xan_Hi,Xanomeline High Dose,USA,2014-02-28,-17,>50,3,2014-03-17T00:00:00Z,H,2014-05-07T23:59:59Z,H,Y,2014-05-24T00:00:00Z,86,VS,VSDTC
CDISCPILOT01,01-703-1379,1379,2013-09-22,2014-03-21,2013-09-22,2014-03-21,NA,2014-03-21T10:55,NA,NA,703,81,YEARS,F,BLACK OR AFRICAN AMERICAN,NOT HISPANIC OR LATINO,Xan_Lo,Xanomeline Low Dose,Xan_Lo,Xanomeline Low Dose,USA,2013-09-12,-10,>50,3,2013-09-22T00:00:00Z,H,2014-03-21T23:59:59Z,H,Y,2014-03-21T23:59:59Z,NA,ADSL,TRTEDTM
CDISCPILOT01,01-703-1396,1396,NA,NA,NA,NA,NA,2014-02-27,NA,NA,703,84,YEARS,M,ASIAN,NOT HISPANIC OR LATINO,Scrnfail,Screen Failure,Scrnfail,Screen Failure,USA,2014-02-09,NA,>50,3,NA,NA,NA,NA,Y,2014-02-09T00:00:00Z,1,DS,DSSTDTC
CDISCPILOT01,01-703-1403,1403,2012-12-12,2012-12-19,2012-12-12,2012-12-13,NA,2013-01-08,NA,NA,703,67,YEARS,M,WHITE,NOT HISPANIC OR LATINO,Xan_Hi,Xanomeline High Dose,Xan_Lo,Xanomeline Low Dose,USA,2012-12-05,-7,>50,3,2012-12-12T00:00:00Z,H,2012-12-13T23:59:59Z,H,Y,2012-12-19T00:00:00Z,44,VS,VSDTC
CDISCPILOT01,01-703-1439,1439,2014-03-12,2014-09-11,2014-03-12,2014-09-11,NA,2014-09-11T12:40,NA,NA,703,76,YEARS,F,WHITE,NOT HISPANIC OR LATINO,Xan_Hi,Xanomeline High Dose,Xan_Hi,Xanomeline High Dose,USA,2014-03-04,-8,>50,3,2014-03-12T00:00:00Z,H,2014-09-11T23:59:59Z,H,Y,2014-09-11T23:59:59Z,NA,ADSL,TRTEDTM
CDISCPILOT01,01-704-1008,1008,2013-01-13,2013-02-25,2013-01-13,2013-02-21,NA,2013-02-25T11:00,NA,NA,704,76,YEARS,F,WHITE,NOT HISPANIC OR LATINO,Xan_Hi,Xanomeline High Dose,Xan_Hi,Xanomeline High Dose,USA,2013-01-06,-7,>50,3,2013-01-13T00:00:00Z,H,2013-02-21T23:59:59Z,H,Y,2013-02-25T00:00:00Z,80,VS,VSDTC
CDISCPILOT01,01-704-1009,1009,2013-08-27,2013-10-02,2013-08-27,2013-09-25,NA,2013-10-02,NA,NA,704,83,YEARS,M,WHITE,NOT HISPANIC OR LATINO,Xan_Lo,Xanomeline Low Dose,Xan_Lo,Xanomeline Low Dose,USA,2013-08-20,-7,>50,3,2013-08-27T00:00:00Z,H,2013-09-25T23:59:59Z,H,Y,2013-10-02T00:00:00Z,3,DS,DSSTDTC
CDISCPILOT01,01-704-1010,1010,2014-02-21,2014-07-09,2014-02-21,2014-07-08,NA,2014-07-09T11:00,NA,NA,704,80,YEARS,M,WHITE,NOT HISPANIC OR LATINO,Pbo,Placebo,Pbo,Placebo,USA,2014-02-08,-13,>50,3,2014-02-21T00:00:00Z,H,2014-07-08T23:59:59Z,H,Y,2014-07-09T00:00:00Z,129,VS,VSDTC
CDISCPILOT01,01-704-1017,1017,2013-10-06,2013-11-24,2013-10-06,2013-11-18,NA,2013-12-06,NA,NA,704,77,YEARS,M,WHITE,NOT HISPANIC OR LATINO,Xan_Hi,Xanomeline High Dose,Xan_Hi,Xanomeline High Dose,USA,2013-09-20,-16,>50,3,2013-10-06T00:00:00Z,H,2013-11-18T23:59:59Z,H,Y,2013-11-24T00:00:00Z,71,VS,VSDTC
CDISCPILOT01,01-704-1025,1025,2013-09-27,2013-11-29,2013-09-27,2013-10-24,NA,2013-11-29T12:00,NA,NA,704,81,YEARS,F,WHITE,NOT HISPANIC OR LATINO,Xan_Lo,Xanomeline Low Dose,Xan_Lo,Xanomeline Low Dose,USA,2013-09-18,-9,>50,3,2013-09-27T00:00:00Z,H,2013-10-24T23:59:59Z,H,Y,2013-11-29T00:00:00Z,3,DS,DSSTDTC
CDISCPILOT01,01-704-1065,1065,2013-10-24,2013-12-24,2013-10-24,2013-12-22,NA,2014-02-17,NA,NA,704,75,YEARS,M,WHITE,NOT HISPANIC OR LATINO,Xan_Hi,Xanomeline High Dose,Xan_Hi,Xanomeline High Dose,USA,2013-10-17,-7,>50,3,2013-10-24T00:00:00Z,H,2013-12-22T23:59:59Z,H,Y,2013-12-24T00:00:00Z,107,VS,VSDTC
CDISCPILOT01,01-704-1074,1074,2014-01-22,2014-03-31,2014-01-22,2014-03-20,NA,2014-03-31T10:30,NA,NA,704,80,YEARS,F,WHITE,NOT HISPANIC OR LATINO,Xan_Hi,Xanomeline High Dose,Xan_Hi,Xanomeline High Dose,USA,2014-01-19,-3,>50,3,2014-01-22T00:00:00Z,H,2014-03-20T23:59:59Z,H,Y,2014-03-31T00:00:00Z,97,VS,VSDTC
CDISCPILOT01,01-704-1093,1093,2013-03-15,2013-06-20,2013-03-15,2013-06-17,NA,2013-12-25,NA,NA,704,79,YEARS,M,WHITE,NOT HISPANIC OR LATINO,Xan_Hi,Xanomeline High Dose,Xan_Hi,Xanomeline High Dose,USA,2013-02-22,-21,>50,3,2013-03-15T00:00:00Z,H,2013-06-17T23:59:59Z,H,Y,2013-12-25T00:00:00Z,121,VS,VSDTC
CDISCPILOT01,01-704-1114,1114,2013-01-23,2013-07-08,2013-01-23,2013-07-07,NA,2013-07-08T09:56,NA,NA,704,77,YEARS,M,WHITE,NOT HISPANIC OR LATINO,Xan_Lo,Xanomeline Low Dose,Xan_Lo,Xanomeline Low Dose,USA,2013-01-09,-14,>50,3,2013-01-23T00:00:00Z,H,2013-07-07T23:59:59Z,H,Y,2013-07-08T00:00:00Z,141,VS,VSDTC
CDISCPILOT01,01-704-1120,1120,2013-12-02,2014-02-03,2013-12-02,2014-02-01,NA,2014-03-10,NA,NA,704,71,YEARS,F,WHITE,NOT HISPANIC OR LATINO,Xan_Lo,Xanomeline Low Dose,Xan_Lo,Xanomeline Low Dose,USA,2013-11-18,-14,>50,3,2013-12-02T00:00:00Z,H,2014-02-01T23:59:59Z,H,Y,2014-02-03T00:00:00Z,108,VS,VSDTC
CDISCPILOT01,01-704-1127,1127,2013-10-02,2014-03-31,2013-10-02,2014-03-31,NA,2014-03-31T11:30,NA,NA,704,84,YEARS,F,WHITE,NOT HISPANIC OR LATINO,Pbo,Placebo,Pbo,Placebo,USA,2013-09-16,-16,>50,3,2013-10-02T00:00:00Z,H,2014-03-31T23:59:59Z,H,Y,2014-03-31T23:59:59Z,NA,ADSL,TRTEDTM
CDISCPILOT01,01-704-1135,1135,2013-10-31,2014-05-16,2013-10-31,2014-05-16,NA,2014-05-16T09:45,NA,NA,704,74,YEARS,F,WHITE,NOT HISPANIC OR LATINO,Xan_Lo,Xanomeline Low Dose,Xan_Lo,Xanomeline Low Dose,USA,2013-10-23,-8,>50,3,2013-10-31T00:00:00Z,H,2014-05-16T23:59:59Z,H,Y,2014-05-16T23:59:59Z,NA,ADSL,TRTEDTM
CDISCPILOT01,01-704-1164,1164,2012-09-19,2013-04-04,2012-09-19,2013-04-04,NA,2013-04-04,NA,NA,704,67,YEARS,F,WHITE,NOT HISPANIC OR LATINO,Pbo,Placebo,Pbo,Placebo,USA,2012-09-11,-8,>50,3,2012-09-19T00:00:00Z,H,2013-04-04T23:59:59Z,H,Y,2013-04-04T23:59:59Z,NA,ADSL,TRTEDTM
CDISCPILOT01,01-704-1218,1218,2012-11-19,2013-05-27,2012-11-19,2013-05-27,NA,2013-05-27T11:20,NA,NA,704,81,YEARS,F,WHITE,NOT HISPANIC OR LATINO,Xan_Lo,Xanomeline Low Dose,Xan_Lo,Xanomeline Low Dose,USA,2012-11-11,-8,>50,3,2012-11-19T00:00:00Z,H,2013-05-27T23:59:59Z,H,Y,2013-05-27T23:59:59Z,NA,ADSL,TRTEDTM
CDISCPILOT01,01-704-1233,1233,2013-03-21,2013-07-14,2013-03-21,2013-04-04,NA,2013-07-14,NA,NA,704,87,YEARS,F,WHITE,NOT HISPANIC OR LATINO,Pbo,Placebo,Pbo,Placebo,USA,2013-03-08,-13,>50,3,2013-03-21T00:00:00Z,H,2013-04-04T23:59:59Z,H,Y,2013-07-14T00:00:00Z,3,DS,DSSTDTC
CDISCPILOT01,01-704-1241,1241,2013-08-25,2013-10-31,2013-08-25,2013-10-09,NA,2014-01-22,NA,NA,704,86,YEARS,M,WHITE,NOT HISPANIC OR LATINO,Xan_Hi,Xanomeline High Dose,Xan_Hi,Xanomeline High Dose,USA,2013-08-14,-11,>50,3,2013-08-25T00:00:00Z,H,2013-10-09T23:59:59Z,H,Y,2013-10-31T00:00:00Z,97,VS,VSDTC
CDISCPILOT01,01-704-1260,1260,2012-08-30,2013-01-18,2012-08-30,2012-11-04,NA,2013-01-18,NA,NA,704,71,YEARS,F,WHITE,NOT HISPANIC OR LATINO,Pbo,Placebo,Pbo,Placebo,USA,2012-08-23,-7,>50,3,2012-08-30T00:00:00Z,H,2012-11-04T23:59:59Z,H,Y,2013-01-18T00:00:00Z,3,DS,DSSTDTC
CDISCPILOT01,01-704-1266,1266,2013-10-13,2013-12-06,2013-10-13,2013-12-06,NA,2014-01-03,NA,NA,704,82,YEARS,M,WHITE,NOT HISPANIC OR LATINO,Xan_Hi,Xanomeline High Dose,Xan_Hi,Xanomeline High Dose,USA,2013-10-05,-8,>50,3,2013-10-13T00:00:00Z,H,2013-12-06T23:59:59Z,H,Y,2013-12-06T23:59:59Z,NA,ADSL,TRTEDTM
CDISCPILOT01,01-704-1323,1323,2013-07-08,2013-08-08,2013-07-08,2013-08-05,NA,2013-10-01,NA,NA,704,68,YEARS,F,WHITE,NOT HISPANIC OR LATINO,Xan_Lo,Xanomeline Low Dose,Xan_Lo,Xanomeline Low Dose,USA,2013-06-13,-25,>50,3,2013-07-08T00:00:00Z,H,2013-08-05T23:59:59Z,H,Y,2013-08-08T00:00:00Z,3,DS,DSSTDTC
CDISCPILOT01,01-704-1325,1325,2014-04-23,2014-08-06,2014-04-23,2014-07-04,NA,2014-08-06T13:30,NA,NA,704,81,YEARS,M,WHITE,NOT HISPANIC OR LATINO,Xan_Lo,Xanomeline Low Dose,Xan_Lo,Xanomeline Low Dose,USA,2014-04-16,-7,>50,3,2014-04-23T00:00:00Z,H,2014-07-04T23:59:59Z,H,Y,2014-08-06T00:00:00Z,108,VS,VSDTC
CDISCPILOT01,01-704-1332,1332,2013-12-09,2014-02-16,2013-12-09,2014-02-14,NA,2014-02-24,NA,NA,704,80,YEARS,M,WHITE,NOT HISPANIC OR LATINO,Xan_Hi,Xanomeline High Dose,Xan_Hi,Xanomeline High Dose,USA,2013-11-24,-15,>50,3,2013-12-09T00:00:00Z,H,2014-02-14T23:59:59Z,H,Y,2014-02-16T00:00:00Z,105,VS,VSDTC
CDISCPILOT01,01-704-1351,1351,2013-10-12,2014-04-18,2013-10-12,2014-04-18,NA,2014-04-18T10:30,NA,NA,704,70,YEARS,M,WHITE,NOT HISPANIC OR LATINO,Pbo,Placebo,Pbo,Placebo,USA,2013-09-26,-16,>50,3,2013-10-12T00:00:00Z,H,2014-04-18T23:59:59Z,H,Y,2014-04-18T23:59:59Z,NA,ADSL,TRTEDTM
CDISCPILOT01,01-704-1388,1388,2012-12-07,2013-06-19,2012-12-07,2013-06-11,NA,2013-06-19T12:30,NA,NA,704,81,YEARS,M,WHITE,NOT HISPANIC OR LATINO,Pbo,Placebo,Pbo,Placebo,USA,2012-11-28,-9,>50,3,2012-12-07T00:00:00Z,H,2013-06-11T23:59:59Z,H,Y,2013-06-19T00:00:00Z,152,VS,VSDTC
CDISCPILOT01,01-704-1435,1435,2012-11-17,2013-01-12,2012-11-17,2013-01-09,NA,2013-01-12T12:00,NA,NA,704,74,YEARS,M,WHITE,NOT HISPANIC OR LATINO,Pbo,Placebo,Pbo,Placebo,USA,2012-11-01,-16,>50,3,2012-11-17T00:00:00Z,H,2013-01-09T23:59:59Z,H,Y,2013-01-12T00:00:00Z,93,VS,VSDTC
CDISCPILOT01,01-704-1445,1445,2014-05-11,2014-11-01,2014-05-11,2014-11-01,NA,2014-11-01,2014-11-01,Y,704,75,YEARS,M,WHITE,NOT HISPANIC OR LATINO,Pbo,Placebo,Pbo,Placebo,USA,2014-05-01,-10,>50,3,2014-05-11T00:00:00Z,H,2014-11-01T23:59:59Z,H,Y,2014-11-01T23:59:59Z,NA,ADSL,TRTEDTM
CDISCPILOT01,01-705-1011,1011,NA,NA,NA,NA,NA,2013-09-13,NA,NA,705,75,YEARS,F,WHITE,NOT HISPANIC OR LATINO,Scrnfail,Screen Failure,Scrnfail,Screen Failure,USA,2013-09-01,NA,>50,3,NA,NA,NA,NA,Y,2013-09-01T00:00:00Z,1,DS,DSSTDTC
CDISCPILOT01,01-705-1018,1018,2013-07-05,2013-07-12,2013-07-05,NA,NA,2013-07-12,NA,NA,705,69,YEARS,F,WHITE,NOT HISPANIC OR LATINO,Pbo,Placebo,Pbo,Placebo,USA,2013-06-30,-5,>50,3,2013-07-05T00:00:00Z,H,NA,NA,Y,2013-07-12T00:00:00Z,3,DS,DSSTDTC
CDISCPILOT01,01-705-1031,1031,2013-11-27,2014-05-11,2013-11-27,2013-12-18,NA,2014-05-11T09:55,NA,NA,705,56,YEARS,F,WHITE,HISPANIC OR LATINO,Xan_Lo,Xanomeline Low Dose,Xan_Lo,Xanomeline Low Dose,USA,2013-11-17,-10,>50,3,2013-11-27T00:00:00Z,H,2013-12-18T23:59:59Z,H,Y,2014-05-11T00:00:00Z,141,VS,VSDTC
CDISCPILOT01,01-705-1058,1058,NA,NA,NA,NA,NA,2013-12-06,NA,NA,705,89,YEARS,M,WHITE,NOT HISPANIC OR LATINO,Scrnfail,Screen Failure,Scrnfail,Screen Failure,USA,2013-12-02,NA,>50,3,NA,NA,NA,NA,Y,2013-12-02T00:00:00Z,1,DS,DSSTDTC
CDISCPILOT01,01-705-1059,1059,2013-08-05,2013-12-05,2013-08-05,2013-12-05,NA,2014-02-06,NA,NA,705,66,YEARS,F,WHITE,NOT HISPANIC OR LATINO,Pbo,Placebo,Pbo,Placebo,USA,2013-08-02,-3,>50,3,2013-08-05T00:00:00Z,H,2013-12-05T23:59:59Z,H,Y,2014-02-06T00:00:00Z,121,VS,VSDTC
CDISCPILOT01,01-705-1112,1112,NA,NA,NA,NA,NA,2014-02-24,NA,NA,705,78,YEARS,M,WHITE,NOT HISPANIC OR LATINO,Scrnfail,Screen Failure,Scrnfail,Screen Failure,USA,2014-02-23,NA,>50,3,NA,NA,NA,NA,Y,2014-02-23T00:00:00Z,1,DS,DSSTDTC
CDISCPILOT01,01-705-1186,1186,2014-01-08,2014-02-07,2014-01-08,2014-01-26,NA,2014-02-07T15:20,NA,NA,705,84,YEARS,F,WHITE,NOT HISPANIC OR LATINO,Pbo,Placebo,Pbo,Placebo,USA,2014-01-03,-5,>50,3,2014-01-08T00:00:00Z,H,2014-01-26T23:59:59Z,H,Y,2014-02-07T00:00:00Z,65,VS,VSDTC
CDISCPILOT01,01-705-1199,1199,2013-09-16,2013-09-29,2013-09-16,2013-09-28,NA,2013-09-29T10:30,NA,NA,705,87,YEARS,M,WHITE,NOT HISPANIC OR LATINO,Xan_Lo,Xanomeline Low Dose,Xan_Lo,Xanomeline Low Dose,USA,2013-09-11,-5,>50,3,2013-09-16T00:00:00Z,H,2013-09-28T23:59:59Z,H,Y,2013-09-29T00:00:00Z,44,VS,VSDTC
CDISCPILOT01,01-705-1243,1243,NA,NA,NA,NA,NA,2013-03-04,NA,NA,705,70,YEARS,F,WHITE,HISPANIC OR LATINO,Scrnfail,Screen Failure,Scrnfail,Screen Failure,USA,2013-02-26,NA,>50,3,NA,NA,NA,NA,Y,2013-02-26T00:00:00Z,1,DS,DSSTDTC
CDISCPILOT01,01-705-1280,1280,2014-01-17,2014-07-25,2014-01-17,2014-07-25,NA,2014-07-25,NA,NA,705,56,YEARS,F,WHITE,NOT HISPANIC OR LATINO,Xan_Hi,Xanomeline High Dose,Xan_Hi,Xanomeline High Dose,USA,2014-01-11,-6,>50,3,2014-01-17T00:00:00Z,H,2014-07-25T23:59:59Z,H,Y,2014-07-25T23:59:59Z,NA,ADSL,TRTEDTM
CDISCPILOT01,01-705-1281,1281,2013-11-28,2014-03-17,2013-11-28,2014-02-27,NA,2014-04-20,NA,NA,705,73,YEARS,F,BLACK OR AFRICAN AMERICAN,NOT HISPANIC OR LATINO,Xan_Hi,Xanomeline High Dose,Xan_Hi,Xanomeline High Dose,USA,2013-11-26,-2,>50,3,2013-11-28T00:00:00Z,H,2014-02-27T23:59:59Z,H,Y,2014-03-17T00:00:00Z,119,VS,VSDTC
CDISCPILOT01,01-705-1282,1282,2012-12-26,2013-06-24,2012-12-26,2013-06-24,NA,2013-06-24T15:25,NA,NA,705,70,YEARS,F,BLACK OR AFRICAN AMERICAN,NOT HISPANIC OR LATINO,Pbo,Placebo,Pbo,Placebo,USA,2012-12-23,-3,>50,3,2012-12-26T00:00:00Z,H,2013-06-24T23:59:59Z,H,Y,2013-06-24T23:59:59Z,NA,ADSL,TRTEDTM
CDISCPILOT01,01-705-1292,1292,2013-10-14,2014-05-14,2013-10-14,2014-05-13,NA,2014-05-14T13:33,NA,NA,705,60,YEARS,F,BLACK OR AFRICAN AMERICAN,NOT HISPANIC OR LATINO,Xan_Lo,Xanomeline Low Dose,Xan_Lo,Xanomeline Low Dose,USA,2013-10-11,-3,>50,3,2013-10-14T00:00:00Z,H,2014-05-13T23:59:59Z,H,Y,2014-05-14T00:00:00Z,152,VS,VSDTC
CDISCPILOT01,01-705-1303,1303,2013-12-16,2014-06-02,2013-12-16,2013-12-30,NA,2014-06-02,NA,NA,705,72,YEARS,M,WHITE,NOT HISPANIC OR LATINO,Xan_Hi,Xanomeline High Dose,Xan_Hi,Xanomeline High Dose,USA,2013-12-10,-6,>50,3,2013-12-16T00:00:00Z,H,2013-12-30T23:59:59Z,H,Y,2014-06-02T00:00:00Z,3,DS,DSSTDTC
CDISCPILOT01,01-705-1310,1310,2013-11-02,2014-01-23,2013-11-02,2014-01-23,NA,2014-02-24,NA,NA,705,74,YEARS,F,WHITE,NOT HISPANIC OR LATINO,Xan_Hi,Xanomeline High Dose,Xan_Hi,Xanomeline High Dose,USA,2013-10-26,-7,>50,3,2013-11-02T00:00:00Z,H,2014-01-23T23:59:59Z,H,Y,2014-01-23T23:59:59Z,NA,ADSL,TRTEDTM
CDISCPILOT01,01-705-1349,1349,2013-03-10,2013-09-08,2013-03-10,2013-09-08,NA,2013-09-08T10:10,NA,NA,705,86,YEARS,F,WHITE,HISPANIC OR LATINO,Pbo,Placebo,Pbo,Placebo,USA,2013-02-24,-14,>50,3,2013-03-10T00:00:00Z,H,2013-09-08T23:59:59Z,H,Y,2013-09-08T23:59:59Z,NA,ADSL,TRTEDTM
CDISCPILOT01,01-705-1377,1377,2014-01-04,2014-03-07,2014-01-04,2014-01-25,NA,2014-03-07,NA,NA,705,63,YEARS,F,BLACK OR AFRICAN AMERICAN,NOT HISPANIC OR LATINO,Xan_Hi,Xanomeline High Dose,Xan_Hi,Xanomeline High Dose,USA,2013-12-29,-6,>50,3,2014-01-04T00:00:00Z,H,2014-01-25T23:59:59Z,H,Y,2014-03-07T00:00:00Z,3,DS,DSSTDTC
CDISCPILOT01,01-705-1382,1382,2013-05-13,2013-05-13,2013-05-13,NA,NA,2013-05-13,NA,NA,705,82,YEARS,M,WHITE,NOT HISPANIC OR LATINO,Xan_Hi,Xanomeline High Dose,Xan_Lo,Xanomeline Low Dose,USA,2013-05-09,-4,>50,3,2013-05-13T00:00:00Z,H,NA,NA,Y,2013-05-13T00:00:00Z,33,VS,VSDTC
CDISCPILOT01,01-705-1393,1393,2012-09-07,2013-02-20,2012-09-07,2013-02-01,NA,2013-04-25,NA,NA,705,84,YEARS,F,WHITE,NOT HISPANIC OR LATINO,Xan_Lo,Xanomeline Low Dose,Xan_Lo,Xanomeline Low Dose,USA,2012-09-02,-5,>50,3,2012-09-07T00:00:00Z,H,2013-02-01T23:59:59Z,H,Y,2013-02-20T00:00:00Z,130,VS,VSDTC
CDISCPILOT01,01-705-1421,1421,NA,NA,NA,NA,NA,2013-01-16,NA,NA,705,87,YEARS,M,WHITE,NOT HISPANIC OR LATINO,Scrnfail,Screen Failure,Scrnfail,Screen Failure,USA,2013-01-14,NA,>50,3,NA,NA,NA,NA,Y,2013-01-14T00:00:00Z,1,DS,DSSTDTC
CDISCPILOT01,01-705-1431,1431,2013-06-23,2013-12-19,2013-06-23,2013-12-19,NA,2013-12-19T10:05,NA,NA,705,68,YEARS,F,WHITE,HISPANIC OR LATINO,Xan_Lo,Xanomeline Low Dose,Xan_Lo,Xanomeline Low Dose,USA,2013-06-16,-7,>50,3,2013-06-23T00:00:00Z,H,2013-12-19T23:59:59Z,H,Y,2013-12-19T23:59:59Z,NA,ADSL,TRTEDTM
CDISCPILOT01,01-706-1041,1041,2013-12-31,2014-07-29,2013-12-31,2014-07-28,NA,2014-07-29T13:45,NA,NA,706,64,YEARS,F,BLACK OR AFRICAN AMERICAN,NOT HISPANIC OR LATINO,Pbo,Placebo,Pbo,Placebo,USA,2013-12-21,-10,>50,3,2013-12-31T00:00:00Z,H,2014-07-28T23:59:59Z,H,Y,2014-07-29T00:00:00Z,152,VS,VSDTC
CDISCPILOT01,01-706-1049,1049,2013-05-14,2013-06-25,2013-05-14,2013-06-18,NA,2013-11-26,NA,NA,706,60,YEARS,F,WHITE,NOT HISPANIC OR LATINO,Xan_Hi,Xanomeline High Dose,Xan_Hi,Xanomeline High Dose,USA,2013-04-30,-14,>50,3,2013-05-14T00:00:00Z,H,2013-06-18T23:59:59Z,H,Y,2013-11-26T00:00:00Z,91,VS,VSDTC
CDISCPILOT01,01-706-1384,1384,2012-09-15,2012-09-29,2012-09-15,2012-09-24,NA,2013-06-22,NA,NA,706,74,YEARS,F,WHITE,NOT HISPANIC OR LATINO,Xan_Lo,Xanomeline Low Dose,Xan_Lo,Xanomeline Low Dose,USA,2012-08-25,-21,>50,3,2012-09-15T00:00:00Z,H,2012-09-24T23:59:59Z,H,Y,2013-06-22T00:00:00Z,51,VS,VSDTC
CDISCPILOT01,01-707-1037,1037,2013-12-20,2014-01-08,2013-12-20,2013-12-24,NA,2014-01-08T12:40,NA,NA,707,72,YEARS,F,WHITE,NOT HISPANIC OR LATINO,Xan_Lo,Xanomeline Low Dose,Xan_Lo,Xanomeline Low Dose,USA,2013-12-12,-8,>50,3,2013-12-20T00:00:00Z,H,2013-12-24T23:59:59Z,H,Y,2014-01-08T00:00:00Z,44,VS,VSDTC
CDISCPILOT01,01-707-1206,1206,2013-10-28,2014-04-27,2013-10-28,2014-04-26,NA,2014-04-27T08:00,NA,NA,707,65,YEARS,M,WHITE,NOT HISPANIC OR LATINO,Pbo,Placebo,Pbo,Placebo,USA,2013-10-20,-8,>50,3,2013-10-28T00:00:00Z,H,2014-04-26T23:59:59Z,H,Y,2014-04-27T00:00:00Z,152,VS,VSDTC
CDISCPILOT01,01-707-1276,1276,NA,NA,NA,NA,NA,2012-10-29,NA,NA,707,72,YEARS,F,WHITE,NOT HISPANIC OR LATINO,Scrnfail,Screen Failure,Scrnfail,Screen Failure,USA,2012-10-12,NA,>50,3,NA,NA,NA,NA,Y,2012-10-12T00:00:00Z,1,DS,DSSTDTC
CDISCPILOT01,01-707-1430,1430,NA,NA,NA,NA,NA,2014-02-15,NA,NA,707,81,YEARS,F,WHITE,NOT HISPANIC OR LATINO,Scrnfail,Screen Failure,Scrnfail,Screen Failure,USA,2014-02-14,NA,>50,3,NA,NA,NA,NA,Y,2014-02-14T00:00:00Z,1,DS,DSSTDTC
CDISCPILOT01,01-707-1434,1434,NA,NA,NA,NA,NA,2013-07-29,NA,NA,707,76,YEARS,F,WHITE,NOT HISPANIC OR LATINO,Scrnfail,Screen Failure,Scrnfail,Screen Failure,USA,2013-07-25,NA,>50,3,NA,NA,NA,NA,Y,2013-07-25T00:00:00Z,1,DS,DSSTDTC
CDISCPILOT01,01-708-1013,1013,NA,NA,NA,NA,NA,2012-11-09,NA,NA,708,80,YEARS,M,WHITE,NOT HISPANIC OR LATINO,Scrnfail,Screen Failure,Scrnfail,Screen Failure,USA,2012-10-13,NA,>50,3,NA,NA,NA,NA,Y,2012-10-13T00:00:00Z,1,DS,DSSTDTC
CDISCPILOT01,01-708-1019,1019,2013-12-20,2014-01-23,2013-12-20,2014-01-01,NA,2014-01-23T10:10,NA,NA,708,68,YEARS,M,WHITE,NOT HISPANIC OR LATINO,Xan_Lo,Xanomeline Low Dose,Xan_Lo,Xanomeline Low Dose,USA,2013-12-10,-10,>50,3,2013-12-20T00:00:00Z,H,2014-01-01T23:59:59Z,H,Y,2014-01-23T00:00:00Z,44,VS,VSDTC
CDISCPILOT01,01-708-1032,1032,2013-02-09,2013-03-09,2013-02-09,2013-03-01,NA,2013-03-09T10:45,NA,NA,708,62,YEARS,M,WHITE,NOT HISPANIC OR LATINO,Xan_Lo,Xanomeline Low Dose,Xan_Lo,Xanomeline Low Dose,USA,2013-02-02,-7,>50,3,2013-02-09T00:00:00Z,H,2013-03-01T23:59:59Z,H,Y,2013-03-09T00:00:00Z,65,VS,VSDTC
CDISCPILOT01,01-708-1054,1054,NA,NA,NA,NA,NA,2014-03-05,NA,NA,708,73,YEARS,F,BLACK OR AFRICAN AMERICAN,NOT HISPANIC OR LATINO,Scrnfail,Screen Failure,Scrnfail,Screen Failure,USA,2014-02-14,NA,>50,3,NA,NA,NA,NA,Y,2014-02-14T00:00:00Z,1,DS,DSSTDTC
CDISCPILOT01,01-708-1067,1067,NA,NA,NA,NA,NA,2013-03-07,NA,NA,708,88,YEARS,M,WHITE,NOT HISPANIC OR LATINO,Scrnfail,Screen Failure,Scrnfail,Screen Failure,USA,2013-02-07,NA,>50,3,NA,NA,NA,NA,Y,2013-02-07T00:00:00Z,1,DS,DSSTDTC
CDISCPILOT01,01-708-1084,1084,2013-05-09,2013-11-11,2013-05-09,2013-11-11,NA,2013-11-11T10:00,NA,NA,708,73,YEARS,F,WHITE,NOT HISPANIC OR LATINO,Xan_Lo,Xanomeline Low Dose,Xan_Lo,Xanomeline Low Dose,USA,2013-05-01,-8,>50,3,2013-05-09T00:00:00Z,H,2013-11-11T23:59:59Z,H,Y,2013-11-11T23:59:59Z,NA,ADSL,TRTEDTM
CDISCPILOT01,01-708-1087,1087,2012-10-22,2013-04-28,2012-10-22,2013-04-28,NA,2013-04-28T12:40,NA,NA,708,74,YEARS,F,WHITE,NOT HISPANIC OR LATINO,Pbo,Placebo,Pbo,Placebo,USA,2012-10-06,-16,>50,3,2012-10-22T00:00:00Z,H,2013-04-28T23:59:59Z,H,Y,2013-04-28T23:59:59Z,NA,ADSL,TRTEDTM
CDISCPILOT01,01-708-1104,1104,NA,NA,NA,NA,NA,2014-01-23,NA,NA,708,78,YEARS,F,ASIAN,NOT HISPANIC OR LATINO,Scrnfail,Screen Failure,Scrnfail,Screen Failure,USA,2014-01-23,NA,>50,3,NA,NA,NA,NA,Y,2014-01-23T00:00:00Z,1,DS,DSSTDTC
CDISCPILOT01,01-708-1158,1158,2014-02-08,2014-03-22,2014-02-08,2014-03-21,NA,2014-03-22T11:15,NA,NA,708,81,YEARS,F,WHITE,NOT HISPANIC OR LATINO,Pbo,Placebo,Pbo,Placebo,USA,2014-02-01,-7,>50,3,2014-02-08T00:00:00Z,H,2014-03-21T23:59:59Z,H,Y,2014-03-22T00:00:00Z,86,VS,VSDTC
CDISCPILOT01,01-708-1171,1171,2012-12-06,2013-06-04,2012-12-06,2013-06-04,NA,2013-06-04,NA,NA,708,77,YEARS,F,WHITE,NOT HISPANIC OR LATINO,Pbo,Placebo,Pbo,Placebo,USA,2012-11-25,-11,>50,3,2012-12-06T00:00:00Z,H,2013-06-04T23:59:59Z,H,Y,2013-06-04T23:59:59Z,NA,ADSL,TRTEDTM
CDISCPILOT01,01-708-1178,1178,2013-12-29,2014-04-06,2013-12-29,2014-04-06,NA,2014-04-06T08:50,NA,NA,708,77,YEARS,F,BLACK OR AFRICAN AMERICAN,NOT HISPANIC OR LATINO,Xan_Hi,Xanomeline High Dose,Xan_Hi,Xanomeline High Dose,USA,2013-12-13,-16,>50,3,2013-12-29T00:00:00Z,H,2014-04-06T23:59:59Z,H,Y,2014-04-06T23:59:59Z,NA,ADSL,TRTEDTM
CDISCPILOT01,01-708-1184,1184,NA,NA,NA,NA,NA,2013-02-03,NA,NA,708,70,YEARS,F,WHITE,NOT HISPANIC OR LATINO,Scrnfail,Screen Failure,Scrnfail,Screen Failure,USA,2013-01-14,NA,>50,3,NA,NA,NA,NA,Y,2013-01-14T00:00:00Z,1,DS,DSSTDTC
CDISCPILOT01,01-708-1213,1213,2013-02-09,2013-02-26,2013-02-09,2013-02-22,NA,2013-02-26,NA,NA,708,76,YEARS,F,WHITE,NOT HISPANIC OR LATINO,Xan_Hi,Xanomeline High Dose,Xan_Lo,Xanomeline Low Dose,USA,2013-02-01,-8,>50,3,2013-02-09T00:00:00Z,H,2013-02-22T23:59:59Z,H,Y,2013-02-26T00:00:00Z,55,VS,VSDTC
CDISCPILOT01,01-708-1216,1216,2012-10-24,2012-12-06,2012-10-24,2012-11-29,NA,2013-01-09,NA,NA,708,78,YEARS,M,WHITE,NOT HISPANIC OR LATINO,Xan_Hi,Xanomeline High Dose,Xan_Hi,Xanomeline High Dose,USA,2012-10-14,-10,>50,3,2012-10-24T00:00:00Z,H,2012-11-29T23:59:59Z,H,Y,2012-12-06T00:00:00Z,86,VS,VSDTC
CDISCPILOT01,01-708-1236,1236,2013-09-21,2013-09-26,2013-09-21,2013-09-21,NA,2013-09-26,NA,NA,708,86,YEARS,F,WHITE,NOT HISPANIC OR LATINO,Xan_Hi,Xanomeline High Dose,Xan_Lo,Xanomeline Low Dose,USA,2013-09-08,-13,>50,3,2013-09-21T00:00:00Z,H,2013-09-21T23:59:59Z,H,Y,2013-09-26T00:00:00Z,3,DS,DSSTDTC
CDISCPILOT01,01-708-1242,1242,NA,NA,NA,NA,NA,2012-08-13,NA,NA,708,80,YEARS,M,WHITE,NOT HISPANIC OR LATINO,Scrnfail,Screen Failure,Scrnfail,Screen Failure,USA,2012-08-13,NA,>50,3,NA,NA,NA,NA,Y,2012-08-13T00:00:00Z,1,DS,DSSTDTC
CDISCPILOT01,01-708-1253,1253,2013-05-07,2013-11-05,2013-05-07,2013-11-05,NA,2013-11-05,NA,NA,708,61,YEARS,M,WHITE,NOT HISPANIC OR LATINO,Pbo,Placebo,Pbo,Placebo,USA,2013-04-26,-11,>50,3,2013-05-07T00:00:00Z,H,2013-11-05T23:59:59Z,H,Y,2013-11-05T23:59:59Z,NA,ADSL,TRTEDTM
CDISCPILOT01,01-708-1272,1272,2013-02-06,2013-04-04,2013-02-06,2013-03-22,NA,2013-04-04T11:05,NA,NA,708,82,YEARS,M,WHITE,NOT HISPANIC OR LATINO,Xan_Lo,Xanomeline Low Dose,Xan_Lo,Xanomeline Low Dose,USA,2013-01-22,-15,>50,3,2013-02-06T00:00:00Z,H,2013-03-22T23:59:59Z,H,Y,2013-04-04T00:00:00Z,97,VS,VSDTC
CDISCPILOT01,01-708-1286,1286,2013-09-10,2014-03-08,2013-09-10,2014-03-08,NA,2014-03-08T09:50,NA,NA,708,80,YEARS,F,BLACK OR AFRICAN AMERICAN,NOT HISPANIC OR LATINO,Pbo,Placebo,Pbo,Placebo,USA,2013-08-25,-16,>50,3,2013-09-10T00:00:00Z,H,2014-03-08T23:59:59Z,H,Y,2014-03-08T23:59:59Z,NA,ADSL,TRTEDTM
CDISCPILOT01,01-708-1296,1296,2013-06-14,2013-12-12,2013-06-14,2013-12-12,NA,2013-12-12T09:30,NA,NA,708,57,YEARS,M,BLACK OR AFRICAN AMERICAN,NOT HISPANIC OR LATINO,Pbo,Placebo,Pbo,Placebo,USA,2013-06-07,-7,>50,3,2013-06-14T00:00:00Z,H,2013-12-12T23:59:59Z,H,Y,2013-12-12T23:59:59Z,NA,ADSL,TRTEDTM
CDISCPILOT01,01-708-1297,1297,2013-01-25,2013-05-08,2013-01-25,2013-05-03,NA,2013-06-07,NA,NA,708,61,YEARS,M,WHITE,NOT HISPANIC OR LATINO,Xan_Lo,Xanomeline Low Dose,Xan_Lo,Xanomeline Low Dose,USA,2013-01-15,-10,>50,3,2013-01-25T00:00:00Z,H,2013-05-03T23:59:59Z,H,Y,2013-05-08T00:00:00Z,119,VS,VSDTC
CDISCPILOT01,01-708-1316,1316,2013-08-23,2014-03-01,2013-08-23,2014-03-01,NA,2014-03-01T10:25,NA,NA,708,74,YEARS,F,WHITE,NOT HISPANIC OR LATINO,Pbo,Placebo,Pbo,Placebo,USA,2013-08-15,-8,>50,3,2013-08-23T00:00:00Z,H,2014-03-01T23:59:59Z,H,Y,2014-03-01T23:59:59Z,NA,ADSL,TRTEDTM
CDISCPILOT01,01-708-1336,1336,2012-12-07,2013-06-05,2012-12-07,2013-06-05,NA,2013-07-05,NA,NA,708,73,YEARS,M,WHITE,NOT HISPANIC OR LATINO,Xan_Hi,Xanomeline High Dose,Xan_Hi,Xanomeline High Dose,USA,2012-11-21,-16,>50,3,2012-12-07T00:00:00Z,H,2013-06-05T23:59:59Z,H,Y,2013-06-05T23:59:59Z,NA,ADSL,TRTEDTM
CDISCPILOT01,01-708-1342,1342,2012-12-29,2013-06-28,2012-12-29,2013-06-28,NA,2013-06-28T09:40,NA,NA,708,59,YEARS,F,WHITE,NOT HISPANIC OR LATINO,Pbo,Placebo,Pbo,Placebo,USA,2012-12-21,-8,>50,3,2012-12-29T00:00:00Z,H,2013-06-28T23:59:59Z,H,Y,2013-06-28T23:59:59Z,NA,ADSL,TRTEDTM
CDISCPILOT01,01-708-1347,1347,2013-04-20,2013-06-18,2013-04-20,2013-06-18,NA,2013-08-02,NA,NA,708,61,YEARS,F,WHITE,NOT HISPANIC OR LATINO,Xan_Hi,Xanomeline High Dose,Xan_Hi,Xanomeline High Dose,USA,2013-04-11,-9,>50,3,2013-04-20T00:00:00Z,H,2013-06-18T23:59:59Z,H,Y,2013-06-18T23:59:59Z,NA,ADSL,TRTEDTM
CDISCPILOT01,01-708-1348,1348,2013-08-05,2014-02-13,2013-08-05,2014-02-13,NA,2014-02-13T10:25,NA,NA,708,79,YEARS,F,WHITE,NOT HISPANIC OR LATINO,Xan_Lo,Xanomeline Low Dose,Xan_Lo,Xanomeline Low Dose,USA,2013-07-28,-8,>50,3,2013-08-05T00:00:00Z,H,2014-02-13T23:59:59Z,H,Y,2014-02-13T23:59:59Z,NA,ADSL,TRTEDTM
CDISCPILOT01,01-708-1352,1352,NA,NA,NA,NA,NA,2013-09-29,NA,NA,708,87,YEARS,F,WHITE,NOT HISPANIC OR LATINO,Scrnfail,Screen Failure,Scrnfail,Screen Failure,USA,2013-09-16,NA,>50,3,NA,NA,NA,NA,Y,2013-09-16T00:00:00Z,1,DS,DSSTDTC
CDISCPILOT01,01-708-1353,1353,2013-07-04,2013-09-10,2013-07-04,2013-08-28,NA,2013-09-10T13:15,NA,NA,708,87,YEARS,F,BLACK OR AFRICAN AMERICAN,NOT HISPANIC OR LATINO,Xan_Lo,Xanomeline Low Dose,Xan_Lo,Xanomeline Low Dose,USA,2013-06-17,-17,>50,3,2013-07-04T00:00:00Z,H,2013-08-28T23:59:59Z,H,Y,2013-09-10T00:00:00Z,87,VS,VSDTC
CDISCPILOT01,01-708-1372,1372,2013-04-12,2013-05-10,2013-04-12,2013-04-19,NA,2013-05-10,NA,NA,708,84,YEARS,M,WHITE,NOT HISPANIC OR LATINO,Xan_Hi,Xanomeline High Dose,Xan_Lo,Xanomeline Low Dose,USA,2013-04-03,-9,>50,3,2013-04-12T00:00:00Z,H,2013-04-19T23:59:59Z,H,Y,2013-05-10T00:00:00Z,41,VS,VSDTC
CDISCPILOT01,01-708-1378,1378,2013-09-03,2014-01-28,2013-09-03,2014-01-28,NA,2014-01-28T13:00,NA,NA,708,67,YEARS,M,BLACK OR AFRICAN AMERICAN,NOT HISPANIC OR LATINO,Pbo,Placebo,Pbo,Placebo,USA,2013-08-24,-10,>50,3,2013-09-03T00:00:00Z,H,2014-01-28T23:59:59Z,H,Y,2014-01-28T23:59:59Z,NA,ADSL,TRTEDTM
CDISCPILOT01,01-708-1406,1406,2013-12-26,2014-07-02,2013-12-26,2014-07-02,NA,2014-07-02T13:45,NA,NA,708,71,YEARS,F,WHITE,NOT HISPANIC OR LATINO,Xan_Hi,Xanomeline High Dose,Xan_Hi,Xanomeline High Dose,USA,2013-12-06,-20,>50,3,2013-12-26T00:00:00Z,H,2014-07-02T23:59:59Z,H,Y,2014-07-02T23:59:59Z,NA,ADSL,TRTEDTM
CDISCPILOT01,01-708-1428,1428,2013-11-09,2014-01-31,2013-11-09,2013-12-14,NA,2014-01-31T11:10,NA,NA,708,84,YEARS,F,WHITE,NOT HISPANIC OR LATINO,Xan_Lo,Xanomeline Low Dose,Xan_Lo,Xanomeline Low Dose,USA,2013-11-02,-7,>50,3,2013-11-09T00:00:00Z,H,2013-12-14T23:59:59Z,H,Y,2014-01-31T00:00:00Z,97,VS,VSDTC
CDISCPILOT01,01-709-1001,1001,2013-10-08,2014-04-08,2013-10-08,2014-04-08,NA,2014-04-08,NA,NA,709,76,YEARS,F,WHITE,NOT HISPANIC OR LATINO,Pbo,Placebo,Pbo,Placebo,USA,2013-09-20,-18,>50,3,2013-10-08T00:00:00Z,H,2014-04-08T23:59:59Z,H,Y,2014-04-08T23:59:59Z,NA,ADSL,TRTEDTM
CDISCPILOT01,01-709-1007,1007,2012-07-31,2012-09-01,2012-07-31,2012-08-28,NA,2012-09-07,NA,NA,709,54,YEARS,F,WHITE,NOT HISPANIC OR LATINO,Xan_Lo,Xanomeline Low Dose,Xan_Lo,Xanomeline Low Dose,USA,2012-07-21,-10,>50,3,2012-07-31T00:00:00Z,H,2012-08-28T23:59:59Z,H,Y,2012-09-01T00:00:00Z,65,VS,VSDTC
CDISCPILOT01,01-709-1020,1020,2012-12-01,2013-06-01,2012-12-01,2013-06-01,NA,2013-06-01T10:40,NA,NA,709,72,YEARS,F,WHITE,NOT HISPANIC OR LATINO,Xan_Lo,Xanomeline Low Dose,Xan_Lo,Xanomeline Low Dose,USA,2012-11-22,-9,>50,3,2012-12-01T00:00:00Z,H,2013-06-01T23:59:59Z,H,Y,2013-06-01T23:59:59Z,NA,ADSL,TRTEDTM
CDISCPILOT01,01-709-1029,1029,2012-12-25,2013-06-26,2012-12-25,2013-06-26,NA,2013-06-26T10:58,NA,NA,709,82,YEARS,M,WHITE,NOT HISPANIC OR LATINO,Xan_Hi,Xanomeline High Dose,Xan_Hi,Xanomeline High Dose,USA,2012-12-10,-15,>50,3,2012-12-25T00:00:00Z,H,2013-06-26T23:59:59Z,H,Y,2013-06-26T23:59:59Z,NA,ADSL,TRTEDTM
CDISCPILOT01,01-709-1081,1081,2014-01-18,2014-05-10,2014-01-18,2014-04-27,NA,2014-05-10T11:15,NA,NA,709,86,YEARS,F,WHITE,NOT HISPANIC OR LATINO,Xan_Lo,Xanomeline Low Dose,Xan_Lo,Xanomeline Low Dose,USA,2014-01-09,-9,>50,3,2014-01-18T00:00:00Z,H,2014-04-27T23:59:59Z,H,Y,2014-05-10T00:00:00Z,109,VS,VSDTC
CDISCPILOT01,01-709-1088,1088,2014-04-12,2014-10-09,2014-04-12,2014-10-09,NA,2014-10-09T13:25,NA,NA,709,69,YEARS,M,WHITE,NOT HISPANIC OR LATINO,Pbo,Placebo,Pbo,Placebo,USA,2014-03-30,-13,>50,3,2014-04-12T00:00:00Z,H,2014-10-09T23:59:59Z,H,Y,2014-10-09T23:59:59Z,NA,ADSL,TRTEDTM
CDISCPILOT01,01-709-1099,1099,2013-10-25,2014-04-25,2013-10-25,2014-04-25,NA,2014-04-25T09:10,NA,NA,709,79,YEARS,F,WHITE,NOT HISPANIC OR LATINO,Xan_Hi,Xanomeline High Dose,Xan_Hi,Xanomeline High Dose,USA,2013-10-14,-11,>50,3,2013-10-25T00:00:00Z,H,2014-04-25T23:59:59Z,H,Y,2014-04-25T23:59:59Z,NA,ADSL,TRTEDTM
CDISCPILOT01,01-709-1102,1102,2013-01-15,2013-03-31,2013-01-15,2013-03-27,NA,2013-05-12,NA,NA,709,71,YEARS,F,WHITE,NOT HISPANIC OR LATINO,Xan_Lo,Xanomeline Low Dose,Xan_Lo,Xanomeline Low Dose,USA,2013-01-07,-8,>50,3,2013-01-15T00:00:00Z,H,2013-03-27T23:59:59Z,H,Y,2013-03-31T00:00:00Z,107,VS,VSDTC
CDISCPILOT01,01-709-1168,1168,2013-08-02,2013-09-27,2013-08-02,2013-09-26,NA,2013-11-01,NA,NA,709,72,YEARS,F,WHITE,NOT HISPANIC OR LATINO,Xan_Hi,Xanomeline High Dose,Xan_Hi,Xanomeline High Dose,USA,2013-07-25,-8,>50,3,2013-08-02T00:00:00Z,H,2013-09-26T23:59:59Z,H,Y,2013-09-27T00:00:00Z,87,VS,VSDTC
CDISCPILOT01,01-709-1217,1217,2013-03-04,2013-06-25,2013-03-04,2013-06-11,NA,2013-06-25T10:35,NA,NA,709,77,YEARS,M,WHITE,NOT HISPANIC OR LATINO,Xan_Lo,Xanomeline Low Dose,Xan_Lo,Xanomeline Low Dose,USA,2013-02-16,-16,>50,3,2013-03-04T00:00:00Z,H,2013-06-11T23:59:59Z,H,Y,2013-06-25T00:00:00Z,119,VS,VSDTC
CDISCPILOT01,01-709-1224,1224,NA,NA,NA,NA,NA,2013-11-24,NA,NA,709,84,YEARS,M,WHITE,NOT HISPANIC OR LATINO,Scrnfail,Screen Failure,Scrnfail,Screen Failure,USA,2013-11-18,NA,>50,3,NA,NA,NA,NA,Y,2013-11-18T00:00:00Z,1,DS,DSSTDTC
CDISCPILOT01,01-709-1237,1237,NA,NA,NA,NA,NA,2014-03-04,NA,NA,709,88,YEARS,F,WHITE,HISPANIC OR LATINO,Scrnfail,Screen Failure,Scrnfail,Screen Failure,USA,2014-01-17,NA,>50,3,NA,NA,NA,NA,Y,2014-01-17T00:00:00Z,1,DS,DSSTDTC
CDISCPILOT01,01-709-1238,1238,2013-05-15,2013-08-07,2013-05-15,2013-08-06,NA,2013-08-13,NA,NA,709,69,YEARS,M,WHITE,NOT HISPANIC OR LATINO,Xan_Hi,Xanomeline High Dose,Xan_Hi,Xanomeline High Dose,USA,2013-05-02,-13,>50,3,2013-05-15T00:00:00Z,H,2013-08-06T23:59:59Z,H,Y,2013-08-07T00:00:00Z,98,VS,VSDTC
CDISCPILOT01,01-709-1259,1259,2013-01-26,2013-06-13,2013-01-26,2013-06-13,NA,2013-06-13T12:23,NA,NA,709,82,YEARS,M,WHITE,NOT HISPANIC OR LATINO,Pbo,Placebo,Pbo,Placebo,USA,2013-01-13,-13,>50,3,2013-01-26T00:00:00Z,H,2013-06-13T23:59:59Z,H,Y,2013-06-13T23:59:59Z,NA,ADSL,TRTEDTM
CDISCPILOT01,01-709-1285,1285,2013-03-24,2013-05-31,2013-03-24,2013-05-23,NA,2013-05-31T13:15,NA,NA,709,87,YEARS,M,WHITE,NOT HISPANIC OR LATINO,Xan_Lo,Xanomeline Low Dose,Xan_Lo,Xanomeline Low Dose,USA,2013-03-17,-7,>50,3,2013-03-24T00:00:00Z,H,2013-05-23T23:59:59Z,H,Y,2013-05-31T00:00:00Z,108,VS,VSDTC
CDISCPILOT01,01-709-1301,1301,2013-07-19,2014-01-17,2013-07-19,2014-01-17,NA,2014-01-17T10:07,NA,NA,709,62,YEARS,F,WHITE,NOT HISPANIC OR LATINO,Pbo,Placebo,Pbo,Placebo,USA,2013-07-14,-5,>50,3,2013-07-19T00:00:00Z,H,2014-01-17T23:59:59Z,H,Y,2014-01-17T23:59:59Z,NA,ADSL,TRTEDTM
CDISCPILOT01,01-709-1306,1306,2014-02-03,2014-06-25,2014-02-03,2014-06-16,NA,2014-06-25T10:45,NA,NA,709,60,YEARS,F,WHITE,NOT HISPANIC OR LATINO,Pbo,Placebo,Pbo,Placebo,USA,2014-01-19,-15,>50,3,2014-02-03T00:00:00Z,H,2014-06-16T23:59:59Z,H,Y,2014-06-25T00:00:00Z,130,VS,VSDTC
CDISCPILOT01,01-709-1309,1309,2013-06-19,2013-12-19,2013-06-19,2013-12-19,NA,2013-12-19T10:35,NA,NA,709,65,YEARS,M,WHITE,NOT HISPANIC OR LATINO,Xan_Hi,Xanomeline High Dose,Xan_Hi,Xanomeline High Dose,USA,2013-06-09,-10,>50,3,2013-06-19T00:00:00Z,H,2013-12-19T23:59:59Z,H,Y,2013-12-19T23:59:59Z,NA,ADSL,TRTEDTM
CDISCPILOT01,01-709-1312,1312,2014-04-20,2014-10-19,2014-04-20,2014-10-19,NA,2014-10-19T10:00,NA,NA,709,68,YEARS,F,WHITE,NOT HISPANIC OR LATINO,Pbo,Placebo,Pbo,Placebo,USA,2014-04-13,-7,>50,3,2014-04-20T00:00:00Z,H,2014-10-19T23:59:59Z,H,Y,2014-10-19T23:59:59Z,NA,ADSL,TRTEDTM
CDISCPILOT01,01-709-1326,1326,2013-04-05,2013-10-02,2013-04-05,2013-10-02,NA,2013-10-02T09:40,NA,NA,709,75,YEARS,F,WHITE,NOT HISPANIC OR LATINO,Xan_Lo,Xanomeline Low Dose,Xan_Lo,Xanomeline Low Dose,USA,2013-03-21,-15,>50,3,2013-04-05T00:00:00Z,H,2013-10-02T23:59:59Z,H,Y,2013-10-02T23:59:59Z,NA,ADSL,TRTEDTM
CDISCPILOT01,01-709-1329,1329,2013-08-15,2013-08-29,2013-08-15,2013-08-25,NA,2013-08-29T10:35,NA,NA,709,70,YEARS,M,WHITE,NOT HISPANIC OR LATINO,Xan_Hi,Xanomeline High Dose,Xan_Lo,Xanomeline Low Dose,USA,2013-08-01,-14,>50,3,2013-08-15T00:00:00Z,H,2013-08-25T23:59:59Z,H,Y,2013-08-29T00:00:00Z,44,VS,VSDTC
CDISCPILOT01,01-709-1339,1339,2012-12-23,2013-06-24,2012-12-23,2013-06-24,NA,2013-06-24T10:10,NA,NA,709,81,YEARS,M,WHITE,NOT HISPANIC OR LATINO,Pbo,Placebo,Pbo,Placebo,USA,2012-12-15,-8,>50,3,2012-12-23T00:00:00Z,H,2013-06-24T23:59:59Z,H,Y,2013-06-24T23:59:59Z,NA,ADSL,TRTEDTM
CDISCPILOT01,01-709-1424,1424,2013-03-03,2013-03-08,2013-03-03,2013-03-07,NA,2013-03-17,NA,NA,709,77,YEARS,M,WHITE,NOT HISPANIC OR LATINO,Xan_Hi,Xanomeline High Dose,Xan_Lo,Xanomeline Low Dose,USA,2013-02-15,-16,>50,3,2013-03-03T00:00:00Z,H,2013-03-07T23:59:59Z,H,Y,2013-03-17T00:00:00Z,3,DS,DSSTDTC
CDISCPILOT01,01-710-1002,1002,2014-01-14,2014-01-18,2014-01-14,2014-01-18,NA,2014-01-20,NA,NA,710,88,YEARS,M,WHITE,NOT HISPANIC OR LATINO,Xan_Lo,Xanomeline Low Dose,Xan_Lo,Xanomeline Low Dose,USA,2013-12-30,-15,>50,3,2014-01-14T00:00:00Z,H,2014-01-18T23:59:59Z,H,Y,2014-01-18T23:59:59Z,NA,ADSL,TRTEDTM
CDISCPILOT01,01-710-1006,1006,2013-02-10,2013-08-10,2013-02-10,2013-08-09,NA,2013-08-10T10:10,NA,NA,710,77,YEARS,M,WHITE,NOT HISPANIC OR LATINO,Xan_Hi,Xanomeline High Dose,Xan_Hi,Xanomeline High Dose,USA,2013-01-27,-14,>50,3,2013-02-10T00:00:00Z,H,2013-08-09T23:59:59Z,H,Y,2013-08-10T00:00:00Z,152,VS,VSDTC
CDISCPILOT01,01-710-1021,1021,2013-09-27,2013-11-12,2013-09-27,2013-10-29,NA,2013-11-22,NA,NA,710,79,YEARS,M,BLACK OR AFRICAN AMERICAN,NOT HISPANIC OR LATINO,Xan_Hi,Xanomeline High Dose,Xan_Hi,Xanomeline High Dose,USA,2013-09-19,-8,>50,3,2013-09-27T00:00:00Z,H,2013-10-29T23:59:59Z,H,Y,2013-11-12T00:00:00Z,86,VS,VSDTC
CDISCPILOT01,01-710-1027,1027,2014-02-28,2014-08-29,2014-02-28,2014-08-29,NA,2014-08-29T11:05,NA,NA,710,83,YEARS,M,WHITE,NOT HISPANIC OR LATINO,Pbo,Placebo,Pbo,Placebo,USA,2014-02-03,-25,>50,3,2014-02-28T00:00:00Z,H,2014-08-29T23:59:59Z,H,Y,2014-08-29T23:59:59Z,NA,ADSL,TRTEDTM
CDISCPILOT01,01-710-1045,1045,2013-06-03,2013-08-17,2013-06-03,2013-08-13,NA,2013-09-08,NA,NA,710,83,YEARS,F,WHITE,NOT HISPANIC OR LATINO,Xan_Lo,Xanomeline Low Dose,Xan_Lo,Xanomeline Low Dose,USA,2013-05-20,-14,>50,3,2013-06-03T00:00:00Z,H,2013-08-13T23:59:59Z,H,Y,2013-08-17T00:00:00Z,108,VS,VSDTC
CDISCPILOT01,01-710-1053,1053,2012-12-26,2013-02-15,2012-12-26,2013-02-10,NA,2013-02-26T13:25,NA,NA,710,84,YEARS,F,WHITE,NOT HISPANIC OR LATINO,Xan_Lo,Xanomeline Low Dose,Xan_Lo,Xanomeline Low Dose,USA,2012-12-15,-11,>50,3,2012-12-26T00:00:00Z,H,2013-02-10T23:59:59Z,H,Y,2013-02-26T00:00:00Z,3,DS,DSSTDTC
CDISCPILOT01,01-710-1060,1060,2013-01-01,2013-07-05,2013-01-01,2013-07-05,NA,2013-07-05T14:40,NA,NA,710,82,YEARS,M,WHITE,NOT HISPANIC OR LATINO,Pbo,Placebo,Pbo,Placebo,USA,2012-12-24,-8,>50,3,2013-01-01T00:00:00Z,H,2013-07-05T23:59:59Z,H,Y,2013-07-05T23:59:59Z,NA,ADSL,TRTEDTM
CDISCPILOT01,01-710-1070,1070,2012-09-08,2013-02-23,2012-09-08,2013-01-22,NA,2013-07-04,NA,NA,710,85,YEARS,F,WHITE,NOT HISPANIC OR LATINO,Xan_Hi,Xanomeline High Dose,Xan_Hi,Xanomeline High Dose,USA,2012-08-28,-11,>50,3,2012-09-08T00:00:00Z,H,2013-01-22T23:59:59Z,H,Y,2013-02-23T00:00:00Z,3,DS,DSSTDTC
CDISCPILOT01,01-710-1077,1077,2013-11-17,2014-05-18,2013-11-17,2014-05-18,NA,2014-05-18T09:50,NA,NA,710,76,YEARS,F,WHITE,NOT HISPANIC OR LATINO,Pbo,Placebo,Pbo,Placebo,USA,2013-11-03,-14,>50,3,2013-11-17T00:00:00Z,H,2014-05-18T23:59:59Z,H,Y,2014-05-18T23:59:59Z,NA,ADSL,TRTEDTM
CDISCPILOT01,01-710-1078,1078,2013-09-17,2014-03-23,2013-09-17,2014-03-23,NA,2014-03-23T16:00,NA,NA,710,81,YEARS,F,WHITE,NOT HISPANIC OR LATINO,Pbo,Placebo,Pbo,Placebo,USA,2013-09-06,-11,>50,3,2013-09-17T00:00:00Z,H,2014-03-23T23:59:59Z,H,Y,2014-03-23T23:59:59Z,NA,ADSL,TRTEDTM
CDISCPILOT01,01-710-1083,1083,2013-07-22,2013-08-03,2013-07-22,2013-08-01,NA,2013-08-03,2013-08-02,Y,710,89,YEARS,F,WHITE,NOT HISPANIC OR LATINO,Pbo,Placebo,Pbo,Placebo,USA,2013-07-09,-13,>50,3,2013-07-22T00:00:00Z,H,2013-08-01T23:59:59Z,H,Y,2013-08-02T00:00:00Z,3,DS,DSSTDTC
CDISCPILOT01,01-710-1129,1129,NA,NA,NA,NA,NA,2013-03-17,NA,NA,710,69,YEARS,F,BLACK OR AFRICAN AMERICAN,NOT HISPANIC OR LATINO,Scrnfail,Screen Failure,Scrnfail,Screen Failure,USA,2013-03-05,NA,>50,3,NA,NA,NA,NA,Y,2013-03-05T00:00:00Z,1,DS,DSSTDTC
CDISCPILOT01,01-710-1137,1137,2013-10-11,2013-11-13,2013-10-11,2013-11-13,NA,2013-11-25,NA,NA,710,79,YEARS,F,BLACK OR AFRICAN AMERICAN,NOT HISPANIC OR LATINO,Xan_Hi,Xanomeline High Dose,Xan_Hi,Xanomeline High Dose,USA,2013-10-03,-8,>50,3,2013-10-11T00:00:00Z,H,2013-11-13T23:59:59Z,H,Y,2013-11-13T23:59:59Z,NA,ADSL,TRTEDTM
CDISCPILOT01,01-710-1142,1142,2012-10-02,2012-10-23,2012-10-02,2012-10-20,NA,2012-10-28,NA,NA,710,76,YEARS,F,WHITE,NOT HISPANIC OR LATINO,Xan_Hi,Xanomeline High Dose,Xan_Hi,Xanomeline High Dose,USA,2012-09-12,-20,>50,3,2012-10-02T00:00:00Z,H,2012-10-20T23:59:59Z,H,Y,2012-10-23T00:00:00Z,65,VS,VSDTC
CDISCPILOT01,01-710-1149,1149,NA,NA,NA,NA,NA,2013-12-01,NA,NA,710,79,YEARS,F,WHITE,NOT HISPANIC OR LATINO,Scrnfail,Screen Failure,Scrnfail,Screen Failure,USA,2013-11-16,NA,>50,3,NA,NA,NA,NA,Y,2013-11-16T00:00:00Z,1,DS,DSSTDTC
CDISCPILOT01,01-710-1154,1154,2014-03-29,2014-05-09,2014-03-29,2014-04-27,NA,2014-06-13,NA,NA,710,84,YEARS,M,WHITE,HISPANIC OR LATINO,Xan_Lo,Xanomeline Low Dose,Xan_Lo,Xanomeline Low Dose,USA,2014-03-08,-21,>50,3,2014-03-29T00:00:00Z,H,2014-04-27T23:59:59Z,H,Y,2014-05-09T00:00:00Z,66,VS,VSDTC
CDISCPILOT01,01-710-1166,1166,2012-11-30,2013-03-30,2012-11-30,2013-03-19,NA,2013-05-22,NA,NA,710,81,YEARS,F,WHITE,NOT HISPANIC OR LATINO,Xan_Lo,Xanomeline Low Dose,Xan_Lo,Xanomeline Low Dose,USA,2012-11-10,-20,>50,3,2012-11-30T00:00:00Z,H,2013-03-19T23:59:59Z,H,Y,2013-03-30T00:00:00Z,119,VS,VSDTC
CDISCPILOT01,01-710-1183,1183,2013-11-16,2014-05-17,2013-11-16,2014-05-17,NA,2014-05-17T11:55,NA,NA,710,80,YEARS,F,WHITE,NOT HISPANIC OR LATINO,Pbo,Placebo,Pbo,Placebo,USA,2013-10-24,-23,>50,3,2013-11-16T00:00:00Z,H,2014-05-17T23:59:59Z,H,Y,2014-05-17T23:59:59Z,NA,ADSL,TRTEDTM
CDISCPILOT01,01-710-1187,1187,2012-11-10,2013-05-12,2012-11-10,2013-05-12,NA,2013-05-12T11:05,NA,NA,710,78,YEARS,F,WHITE,NOT HISPANIC OR LATINO,Xan_Hi,Xanomeline High Dose,Xan_Hi,Xanomeline High Dose,USA,2012-10-26,-15,>50,3,2012-11-10T00:00:00Z,H,2013-05-12T23:59:59Z,H,Y,2013-05-12T23:59:59Z,NA,ADSL,TRTEDTM
CDISCPILOT01,01-710-1235,1235,2012-09-26,2013-03-27,2012-09-26,2013-03-27,NA,2013-03-27T09:35,NA,NA,710,56,YEARS,F,WHITE,HISPANIC OR LATINO,Xan_Lo,Xanomeline Low Dose,Xan_Lo,Xanomeline Low Dose,USA,2012-09-13,-13,>50,3,2012-09-26T00:00:00Z,H,2013-03-27T23:59:59Z,H,Y,2013-03-27T23:59:59Z,NA,ADSL,TRTEDTM
CDISCPILOT01,01-710-1249,1249,2013-12-28,2014-06-28,2013-12-28,2014-06-28,NA,2014-06-28T11:05,NA,NA,710,79,YEARS,M,WHITE,NOT HISPANIC OR LATINO,Xan_Hi,Xanomeline High Dose,Xan_Hi,Xanomeline High Dose,USA,2013-12-19,-9,>50,3,2013-12-28T00:00:00Z,H,2014-06-28T23:59:59Z,H,Y,2014-06-28T23:59:59Z,NA,ADSL,TRTEDTM
CDISCPILOT01,01-710-1257,1257,NA,NA,NA,NA,NA,2013-12-11,NA,NA,710,85,YEARS,F,WHITE,NOT HISPANIC OR LATINO,Scrnfail,Screen Failure,Scrnfail,Screen Failure,USA,2013-11-29,NA,>50,3,NA,NA,NA,NA,Y,2013-11-29T00:00:00Z,1,DS,DSSTDTC
CDISCPILOT01,01-710-1264,1264,2013-06-13,2013-10-12,2013-06-13,2013-10-11,NA,2013-11-05,NA,NA,710,78,YEARS,M,WHITE,NOT HISPANIC OR LATINO,Pbo,Placebo,Pbo,Placebo,USA,2013-06-02,-11,>50,3,2013-06-13T00:00:00Z,H,2013-10-11T23:59:59Z,H,Y,2013-10-12T00:00:00Z,130,VS,VSDTC
CDISCPILOT01,01-710-1270,1270,2014-02-12,2014-03-01,2014-02-12,2014-03-01,NA,2014-03-26,NA,NA,710,83,YEARS,F,WHITE,NOT HISPANIC OR LATINO,Xan_Lo,Xanomeline Low Dose,Xan_Lo,Xanomeline Low Dose,USA,2014-02-01,-11,>50,3,2014-02-12T00:00:00Z,H,2014-03-01T23:59:59Z,H,Y,2014-03-01T23:59:59Z,NA,ADSL,TRTEDTM
CDISCPILOT01,01-710-1271,1271,2012-09-27,2012-12-02,2012-09-27,2012-11-21,NA,2012-12-09,NA,NA,710,86,YEARS,F,WHITE,NOT HISPANIC OR LATINO,Pbo,Placebo,Pbo,Placebo,USA,2012-09-04,-23,>50,3,2012-09-27T00:00:00Z,H,2012-11-21T23:59:59Z,H,Y,2012-12-02T00:00:00Z,3,DS,DSSTDTC
CDISCPILOT01,01-710-1278,1278,2012-12-24,2013-03-03,2012-12-24,2013-02-26,NA,2013-03-10,NA,NA,710,81,YEARS,M,WHITE,NOT HISPANIC OR LATINO,Xan_Hi,Xanomeline High Dose,Xan_Hi,Xanomeline High Dose,USA,2012-12-13,-11,>50,3,2012-12-24T00:00:00Z,H,2013-02-26T23:59:59Z,H,Y,2013-03-07T00:00:00Z,3,DS,DSSTDTC
CDISCPILOT01,01-710-1300,1300,2012-12-15,2013-02-19,2012-12-15,2013-02-15,NA,2013-03-19,NA,NA,710,78,YEARS,F,WHITE,NOT HISPANIC OR LATINO,Xan_Lo,Xanomeline Low Dose,Xan_Lo,Xanomeline Low Dose,USA,2012-12-04,-11,>50,3,2012-12-15T00:00:00Z,H,2013-02-15T23:59:59Z,H,Y,2013-02-19T00:00:00Z,108,VS,VSDTC
CDISCPILOT01,01-710-1314,1314,2013-04-24,2013-05-25,2013-04-24,2013-05-23,NA,2013-05-25,NA,NA,710,78,YEARS,F,WHITE,NOT HISPANIC OR LATINO,Pbo,Placebo,Pbo,Placebo,USA,2013-04-21,-3,>50,3,2013-04-24T00:00:00Z,H,2013-05-23T23:59:59Z,H,Y,2013-05-25T00:00:00Z,3,DS,DSSTDTC
CDISCPILOT01,01-710-1315,1315,2013-02-27,2013-07-16,2013-02-27,2013-07-06,NA,2013-09-02,NA,NA,710,83,YEARS,F,WHITE,NOT HISPANIC OR LATINO,Pbo,Placebo,Pbo,Placebo,USA,2013-02-12,-15,>50,3,2013-02-27T00:00:00Z,H,2013-07-06T23:59:59Z,H,Y,2013-07-16T00:00:00Z,130,VS,VSDTC
CDISCPILOT01,01-710-1337,1337,NA,NA,NA,NA,NA,2014-01-26,NA,NA,710,73,YEARS,M,WHITE,NOT HISPANIC OR LATINO,Scrnfail,Screen Failure,Scrnfail,Screen Failure,USA,2013-12-30,NA,>50,3,NA,NA,NA,NA,Y,2013-12-30T00:00:00Z,1,DS,DSSTDTC
CDISCPILOT01,01-710-1354,1354,2012-11-11,2013-05-01,2012-11-11,2013-05-01,NA,2013-05-01T14:05,NA,NA,710,73,YEARS,M,WHITE,NOT HISPANIC OR LATINO,Xan_Hi,Xanomeline High Dose,Xan_Hi,Xanomeline High Dose,USA,2012-10-29,-13,>50,3,2012-11-11T00:00:00Z,H,2013-05-01T23:59:59Z,H,Y,2013-05-01T23:59:59Z,NA,ADSL,TRTEDTM
CDISCPILOT01,01-710-1358,1358,2012-09-17,2013-03-12,2012-09-17,2013-02-09,NA,2013-03-12,NA,NA,710,82,YEARS,M,WHITE,NOT HISPANIC OR LATINO,Xan_Lo,Xanomeline Low Dose,Xan_Lo,Xanomeline Low Dose,USA,2012-09-02,-15,>50,3,2012-09-17T00:00:00Z,H,2013-02-09T23:59:59Z,H,Y,2013-03-12T00:00:00Z,3,DS,DSSTDTC
CDISCPILOT01,01-710-1368,1368,2013-10-23,2014-04-24,2013-10-23,2014-04-24,NA,2014-04-24T10:10,NA,NA,710,88,YEARS,F,WHITE,NOT HISPANIC OR LATINO,Pbo,Placebo,Pbo,Placebo,USA,2013-10-21,-2,>50,3,2013-10-23T00:00:00Z,H,2014-04-24T23:59:59Z,H,Y,2014-04-24T23:59:59Z,NA,ADSL,TRTEDTM
CDISCPILOT01,01-710-1376,1376,NA,NA,NA,NA,NA,2014-05-02,NA,NA,710,89,YEARS,F,WHITE,NOT HISPANIC OR LATINO,Scrnfail,Screen Failure,Scrnfail,Screen Failure,USA,2014-04-21,NA,>50,3,NA,NA,NA,NA,Y,2014-04-21T00:00:00Z,1,DS,DSSTDTC
CDISCPILOT01,01-710-1380,1380,NA,NA,NA,NA,NA,2013-06-12,NA,NA,710,80,YEARS,F,WHITE,NOT HISPANIC OR LATINO,Scrnfail,Screen Failure,Scrnfail,Screen Failure,USA,2013-06-02,NA,>50,3,NA,NA,NA,NA,Y,2013-06-02T00:00:00Z,1,DS,DSSTDTC
CDISCPILOT01,01-710-1385,1385,2012-10-29,2013-02-18,2012-10-29,2013-02-18,NA,2013-02-24,NA,NA,710,77,YEARS,M,WHITE,NOT HISPANIC OR LATINO,Xan_Lo,Xanomeline Low Dose,Xan_Lo,Xanomeline Low Dose,USA,2012-10-21,-8,>50,3,2012-10-29T00:00:00Z,H,2013-02-18T23:59:59Z,H,Y,2013-02-18T23:59:59Z,NA,ADSL,TRTEDTM
CDISCPILOT01,01-710-1408,1408,2013-01-05,2013-07-12,2013-01-05,2013-07-12,NA,2013-07-12T14:35,NA,NA,710,80,YEARS,M,WHITE,NOT HISPANIC OR LATINO,Xan_Hi,Xanomeline High Dose,Xan_Hi,Xanomeline High Dose,USA,2012-12-26,-10,>50,3,2013-01-05T00:00:00Z,H,2013-07-12T23:59:59Z,H,Y,2013-07-12T23:59:59Z,NA,ADSL,TRTEDTM
CDISCPILOT01,01-710-1443,1443,NA,NA,NA,NA,NA,2013-12-14,NA,NA,710,88,YEARS,F,WHITE,NOT HISPANIC OR LATINO,Scrnfail,Screen Failure,Scrnfail,Screen Failure,USA,2013-12-13,NA,>50,3,NA,NA,NA,NA,Y,2013-12-13T00:00:00Z,1,DS,DSSTDTC
CDISCPILOT01,01-711-1012,1012,2013-04-03,2013-05-02,2013-04-03,2013-04-29,NA,2013-09-18,NA,NA,711,67,YEARS,F,WHITE,NOT HISPANIC OR LATINO,Xan_Hi,Xanomeline High Dose,Xan_Hi,Xanomeline High Dose,USA,2013-03-20,-14,>50,3,2013-04-03T00:00:00Z,H,2013-04-29T23:59:59Z,H,Y,2013-09-18T00:00:00Z,71,VS,VSDTC
CDISCPILOT01,01-711-1022,1022,NA,NA,NA,NA,NA,2014-03-17,NA,NA,711,86,YEARS,F,WHITE,NOT HISPANIC OR LATINO,Scrnfail,Screen Failure,Scrnfail,Screen Failure,USA,2014-03-17,NA,>50,3,NA,NA,NA,NA,Y,2014-03-17T00:00:00Z,1,DS,DSSTDTC
CDISCPILOT01,01-711-1036,1036,2012-07-29,2013-02-10,2012-07-29,2013-02-10,NA,2013-02-10T10:25,NA,NA,711,70,YEARS,M,BLACK OR AFRICAN AMERICAN,NOT HISPANIC OR LATINO,Pbo,Placebo,Pbo,Placebo,USA,2012-07-20,-9,>50,3,2012-07-29T00:00:00Z,H,2013-02-10T23:59:59Z,H,Y,2013-02-10T23:59:59Z,NA,ADSL,TRTEDTM
CDISCPILOT01,01-711-1143,1143,2013-04-03,2013-06-01,2013-04-03,2013-05-30,NA,2013-09-22,NA,NA,711,76,YEARS,F,WHITE,NOT HISPANIC OR LATINO,Xan_Lo,Xanomeline Low Dose,Xan_Lo,Xanomeline Low Dose,USA,2013-03-30,-4,>50,3,2013-04-03T00:00:00Z,H,2013-05-30T23:59:59Z,H,Y,2013-09-22T00:00:00Z,111,VS,VSDTC
CDISCPILOT01,01-711-1163,1163,NA,NA,NA,NA,NA,2012-11-08,NA,NA,711,74,YEARS,F,BLACK OR AFRICAN AMERICAN,NOT HISPANIC OR LATINO,Scrnfail,Screen Failure,Scrnfail,Screen Failure,USA,2012-11-08,NA,>50,3,NA,NA,NA,NA,Y,2012-11-08T00:00:00Z,1,DS,DSSTDTC
CDISCPILOT01,01-711-1173,1173,NA,NA,NA,NA,NA,2012-10-04,NA,NA,711,62,YEARS,M,WHITE,NOT HISPANIC OR LATINO,Scrnfail,Screen Failure,Scrnfail,Screen Failure,USA,2012-10-04,NA,>50,3,NA,NA,NA,NA,Y,2012-10-04T00:00:00Z,1,DS,DSSTDTC
CDISCPILOT01,01-711-1226,1226,NA,NA,NA,NA,NA,2013-10-24,NA,NA,711,74,YEARS,F,WHITE,NOT HISPANIC OR LATINO,Scrnfail,Screen Failure,Scrnfail,Screen Failure,USA,2013-10-24,NA,>50,3,NA,NA,NA,NA,Y,2013-10-24T00:00:00Z,1,DS,DSSTDTC
CDISCPILOT01,01-711-1251,1251,NA,NA,NA,NA,NA,2014-02-28,NA,NA,711,82,YEARS,M,WHITE,NOT HISPANIC OR LATINO,Scrnfail,Screen Failure,Scrnfail,Screen Failure,USA,2014-02-28,NA,>50,3,NA,NA,NA,NA,Y,2014-02-28T00:00:00Z,1,DS,DSSTDTC
CDISCPILOT01,01-711-1283,1283,NA,NA,NA,NA,NA,2014-03-27,NA,NA,711,75,YEARS,F,BLACK OR AFRICAN AMERICAN,NOT HISPANIC OR LATINO,Scrnfail,Screen Failure,Scrnfail,Screen Failure,USA,2014-03-27,NA,>50,3,NA,NA,NA,NA,Y,2014-03-27T00:00:00Z,1,DS,DSSTDTC
CDISCPILOT01,01-711-1284,1284,NA,NA,NA,NA,NA,2013-08-05,NA,NA,711,77,YEARS,F,WHITE,NOT HISPANIC OR LATINO,Scrnfail,Screen Failure,Scrnfail,Screen Failure,USA,2013-08-05,NA,>50,3,NA,NA,NA,NA,Y,2013-08-05T00:00:00Z,1,DS,DSSTDTC
CDISCPILOT01,01-711-1290,1290,NA,NA,NA,NA,NA,2013-12-20,NA,NA,711,61,YEARS,F,WHITE,NOT HISPANIC OR LATINO,Scrnfail,Screen Failure,Scrnfail,Screen Failure,USA,2013-12-20,NA,>50,3,NA,NA,NA,NA,Y,2013-12-20T00:00:00Z,1,DS,DSSTDTC
CDISCPILOT01,01-711-1433,1433,2013-01-27,2013-02-06,2013-01-27,2013-02-05,NA,2013-02-06T10:52,NA,NA,711,84,YEARS,F,WHITE,NOT HISPANIC OR LATINO,Xan_Hi,Xanomeline High Dose,Xan_Lo,Xanomeline Low Dose,USA,2013-01-23,-4,>50,3,2013-01-27T00:00:00Z,H,2013-02-05T23:59:59Z,H,Y,2013-02-06T00:00:00Z,41,VS,VSDTC
CDISCPILOT01,01-713-1043,1043,2013-09-15,2014-03-24,2013-09-15,2014-03-24,NA,2014-03-24T14:30,NA,NA,713,78,YEARS,F,WHITE,NOT HISPANIC OR LATINO,Xan_Lo,Xanomeline Low Dose,Xan_Lo,Xanomeline Low Dose,USA,2013-08-17,-29,>50,3,2013-09-15T00:00:00Z,H,2014-03-24T23:59:59Z,H,Y,2014-03-24T23:59:59Z,NA,ADSL,TRTEDTM
CDISCPILOT01,01-713-1073,1073,2014-03-30,2014-10-05,2014-03-30,2014-10-05,NA,2014-10-05T10:30,NA,NA,713,74,YEARS,F,BLACK OR AFRICAN AMERICAN,NOT HISPANIC OR LATINO,Xan_Lo,Xanomeline Low Dose,Xan_Lo,Xanomeline Low Dose,USA,2014-03-15,-15,>50,3,2014-03-30T00:00:00Z,H,2014-10-05T23:59:59Z,H,Y,2014-10-05T23:59:59Z,NA,ADSL,TRTEDTM
CDISCPILOT01,01-713-1106,1106,2012-10-31,2013-05-06,2012-10-31,2013-05-06,NA,2013-05-06T11:25,NA,NA,713,74,YEARS,M,WHITE,NOT HISPANIC OR LATINO,Xan_Hi,Xanomeline High Dose,Xan_Hi,Xanomeline High Dose,USA,2012-10-03,-28,>50,3,2012-10-31T00:00:00Z,H,2013-05-06T23:59:59Z,H,Y,2013-05-06T23:59:59Z,NA,ADSL,TRTEDTM
CDISCPILOT01,01-713-1141,1141,2013-05-31,2013-08-06,2013-05-31,2013-07-01,NA,2013-08-06T12:00,NA,NA,713,79,YEARS,M,WHITE,NOT HISPANIC OR LATINO,Xan_Hi,Xanomeline High Dose,Xan_Hi,Xanomeline High Dose,USA,2013-05-23,-8,>50,3,2013-05-31T00:00:00Z,H,2013-07-01T23:59:59Z,H,Y,2013-08-06T00:00:00Z,85,VS,VSDTC
CDISCPILOT01,01-713-1179,1179,2013-08-09,2014-02-05,2013-08-09,2014-02-05,NA,2014-02-05T15:15,NA,NA,713,64,YEARS,F,WHITE,NOT HISPANIC OR LATINO,Pbo,Placebo,Pbo,Placebo,USA,2013-07-11,-29,>50,3,2013-08-09T00:00:00Z,H,2014-02-05T23:59:59Z,H,Y,2014-02-05T23:59:59Z,NA,ADSL,TRTEDTM
CDISCPILOT01,01-713-1209,1209,2013-05-27,2013-11-22,2013-05-27,2013-11-22,NA,2013-11-22T10:05,NA,NA,713,77,YEARS,F,WHITE,NOT HISPANIC OR LATINO,Xan_Hi,Xanomeline High Dose,Xan_Hi,Xanomeline High Dose,USA,2013-05-16,-11,>50,3,2013-05-27T00:00:00Z,H,2013-11-22T23:59:59Z,H,Y,2013-11-22T23:59:59Z,NA,ADSL,TRTEDTM
CDISCPILOT01,01-713-1256,1256,2012-09-19,2013-03-25,2012-09-19,2013-03-25,NA,2013-03-25T10:30,NA,NA,713,71,YEARS,M,WHITE,NOT HISPANIC OR LATINO,Pbo,Placebo,Pbo,Placebo,USA,2012-09-10,-9,>50,3,2012-09-19T00:00:00Z,H,2013-03-25T23:59:59Z,H,Y,2013-03-25T23:59:59Z,NA,ADSL,TRTEDTM
CDISCPILOT01,01-713-1269,1269,2014-01-27,2014-07-28,2014-01-27,2014-07-28,NA,2014-07-28T14:00,NA,NA,713,73,YEARS,M,WHITE,NOT HISPANIC OR LATINO,Pbo,Placebo,Pbo,Placebo,USA,2014-01-14,-13,>50,3,2014-01-27T00:00:00Z,H,2014-07-28T23:59:59Z,H,Y,2014-07-28T23:59:59Z,NA,ADSL,TRTEDTM
CDISCPILOT01,01-713-1448,1448,2014-01-19,2014-05-17,2014-01-19,2014-05-16,NA,2014-07-27,NA,NA,713,71,YEARS,F,WHITE,NOT HISPANIC OR LATINO,Xan_Lo,Xanomeline Low Dose,Xan_Lo,Xanomeline Low Dose,USA,2014-01-05,-14,>50,3,2014-01-19T00:00:00Z,H,2014-05-16T23:59:59Z,H,Y,2014-07-27T00:00:00Z,121,VS,VSDTC
CDISCPILOT01,01-714-1035,1035,2014-04-17,2014-10-16,2014-04-17,2014-10-16,NA,2014-10-16T12:00,NA,NA,714,88,YEARS,F,WHITE,NOT HISPANIC OR LATINO,Pbo,Placebo,Pbo,Placebo,USA,2014-04-03,-14,>50,3,2014-04-17T00:00:00Z,H,2014-10-16T23:59:59Z,H,Y,2014-10-16T23:59:59Z,NA,ADSL,TRTEDTM
CDISCPILOT01,01-714-1068,1068,2013-08-08,2013-10-16,2013-08-08,2013-10-08,NA,2013-10-23,NA,NA,714,79,YEARS,F,WHITE,NOT HISPANIC OR LATINO,Xan_Lo,Xanomeline Low Dose,Xan_Lo,Xanomeline Low Dose,USA,2013-07-31,-8,>50,3,2013-08-08T00:00:00Z,H,2013-10-08T23:59:59Z,H,Y,2013-10-16T00:00:00Z,108,VS,VSDTC
CDISCPILOT01,01-714-1195,1195,2013-04-26,2013-10-23,2013-04-26,2013-10-23,NA,2013-10-23T10:55,NA,NA,714,75,YEARS,M,WHITE,NOT HISPANIC OR LATINO,Xan_Lo,Xanomeline Low Dose,Xan_Lo,Xanomeline Low Dose,USA,2013-04-16,-10,>50,3,2013-04-26T00:00:00Z,H,2013-10-23T23:59:59Z,H,Y,2013-10-23T23:59:59Z,NA,ADSL,TRTEDTM
CDISCPILOT01,01-714-1288,1288,2013-12-04,2014-06-17,2013-12-04,2014-06-17,NA,2014-06-17T13:00,NA,NA,714,77,YEARS,M,BLACK OR AFRICAN AMERICAN,NOT HISPANIC OR LATINO,Xan_Hi,Xanomeline High Dose,Xan_Hi,Xanomeline High Dose,USA,2013-11-24,-10,>50,3,2013-12-04T00:00:00Z,H,2014-06-17T23:59:59Z,H,Y,2014-06-17T23:59:59Z,NA,ADSL,TRTEDTM
CDISCPILOT01,01-714-1375,1375,2013-02-26,2013-09-07,2013-02-26,2013-09-07,NA,2013-09-07T13:58,NA,NA,714,78,YEARS,F,WHITE,NOT HISPANIC OR LATINO,Pbo,Placebo,Pbo,Placebo,USA,2013-02-23,-3,>50,3,2013-02-26T00:00:00Z,H,2013-09-07T23:59:59Z,H,Y,2013-09-07T23:59:59Z,NA,ADSL,TRTEDTM
CDISCPILOT01,01-714-1425,1425,2013-08-15,2013-08-22,2013-08-15,2013-08-19,NA,2013-08-22T14:55,NA,NA,714,81,YEARS,M,WHITE,NOT HISPANIC OR LATINO,Xan_Hi,Xanomeline High Dose,Xan_Lo,Xanomeline Low Dose,USA,2013-08-11,-4,>50,3,2013-08-15T00:00:00Z,H,2013-08-19T23:59:59Z,H,Y,2013-08-22T00:00:00Z,44,VS,VSDTC
CDISCPILOT01,01-715-1085,1085,2013-02-16,2013-08-18,2013-02-16,2013-08-18,NA,2013-08-18T10:22,NA,NA,715,77,YEARS,F,WHITE,NOT HISPANIC OR LATINO,Xan_Lo,Xanomeline Low Dose,Xan_Lo,Xanomeline Low Dose,USA,2013-02-03,-13,>50,3,2013-02-16T00:00:00Z,H,2013-08-18T23:59:59Z,H,Y,2013-08-18T23:59:59Z,NA,ADSL,TRTEDTM
CDISCPILOT01,01-715-1107,1107,2013-02-26,2013-05-13,2013-02-26,2013-05-07,NA,2013-08-14T09:52,NA,NA,715,65,YEARS,M,WHITE,NOT HISPANIC OR LATINO,Xan_Lo,Xanomeline Low Dose,Xan_Lo,Xanomeline Low Dose,USA,2013-02-12,-14,>50,3,2013-02-26T00:00:00Z,H,2013-05-07T23:59:59Z,H,Y,2013-08-14T00:00:00Z,111,VS,VSDTC
CDISCPILOT01,01-715-1134,1134,NA,NA,NA,NA,NA,2014-05-21,NA,NA,715,50,YEARS,F,WHITE,NOT HISPANIC OR LATINO,Scrnfail,Screen Failure,Scrnfail,Screen Failure,USA,2014-04-17,NA,18-50,2,NA,NA,NA,NA,Y,2014-04-17T00:00:00Z,1,DS,DSSTDTC
CDISCPILOT01,01-715-1155,1155,2013-12-13,2014-04-26,2013-12-13,2014-01-25,NA,2014-04-26,NA,NA,715,59,YEARS,F,WHITE,NOT HISPANIC OR LATINO,Pbo,Placebo,Pbo,Placebo,USA,2013-11-29,-14,>50,3,2013-12-13T00:00:00Z,H,2014-01-25T23:59:59Z,H,Y,2014-04-26T00:00:00Z,3,DS,DSSTDTC
CDISCPILOT01,01-715-1207,1207,2012-11-18,2013-06-01,2012-11-18,2013-05-27,NA,2013-06-01T09:30,NA,NA,715,78,YEARS,F,WHITE,NOT HISPANIC OR LATINO,Pbo,Placebo,Pbo,Placebo,USA,2012-11-12,-6,>50,3,2012-11-18T00:00:00Z,H,2013-05-27T23:59:59Z,H,Y,2013-06-01T00:00:00Z,152,VS,VSDTC
CDISCPILOT01,01-715-1225,1225,NA,NA,NA,NA,NA,2013-05-07,NA,NA,715,77,YEARS,F,WHITE,NOT HISPANIC OR LATINO,Scrnfail,Screen Failure,Scrnfail,Screen Failure,USA,2013-01-22,NA,>50,3,NA,NA,NA,NA,Y,2013-01-22T00:00:00Z,1,DS,DSSTDTC
CDISCPILOT01,01-715-1319,1319,2013-02-17,2013-03-18,2013-02-17,2013-03-05,NA,2013-03-18T10:28,NA,NA,715,65,YEARS,M,WHITE,NOT HISPANIC OR LATINO,Xan_Hi,Xanomeline High Dose,Xan_Hi,Xanomeline High Dose,USA,2013-02-03,-14,>50,3,2013-02-17T00:00:00Z,H,2013-03-05T23:59:59Z,H,Y,2013-03-18T00:00:00Z,65,VS,VSDTC
CDISCPILOT01,01-715-1321,1321,2014-02-11,2014-04-22,2014-02-11,2014-04-21,NA,2014-04-22T11:12,NA,NA,715,75,YEARS,F,WHITE,NOT HISPANIC OR LATINO,Xan_Hi,Xanomeline High Dose,Xan_Hi,Xanomeline High Dose,USA,2014-02-06,-5,>50,3,2014-02-11T00:00:00Z,H,2014-04-21T23:59:59Z,H,Y,2014-04-22T00:00:00Z,108,VS,VSDTC
CDISCPILOT01,01-715-1333,1333,NA,NA,NA,NA,NA,2013-11-03,NA,NA,715,75,YEARS,F,WHITE,NOT HISPANIC OR LATINO,Scrnfail,Screen Failure,Scrnfail,Screen Failure,USA,2013-06-03,NA,>50,3,NA,NA,NA,NA,Y,2013-06-03T00:00:00Z,1,DS,DSSTDTC
CDISCPILOT01,01-715-1397,1397,2013-04-03,2013-10-03,2013-04-03,2013-10-02,NA,2013-10-03T10:50,NA,NA,715,76,YEARS,F,WHITE,NOT HISPANIC OR LATINO,Pbo,Placebo,Pbo,Placebo,USA,2013-03-20,-14,>50,3,2013-04-03T00:00:00Z,H,2013-10-02T23:59:59Z,H,Y,2013-10-03T00:00:00Z,152,VS,VSDTC
CDISCPILOT01,01-715-1405,1405,2013-07-06,2013-07-13,2013-07-06,2013-07-07,NA,2014-01-11,NA,NA,715,69,YEARS,M,WHITE,NOT HISPANIC OR LATINO,Xan_Lo,Xanomeline Low Dose,Xan_Lo,Xanomeline Low Dose,USA,2013-06-27,-9,>50,3,2013-07-06T00:00:00Z,H,2013-07-07T23:59:59Z,H,Y,2014-01-11T00:00:00Z,51,VS,VSDTC
CDISCPILOT01,01-715-1407,1407,NA,NA,NA,NA,NA,2013-02-07,NA,NA,715,73,YEARS,F,WHITE,NOT HISPANIC OR LATINO,Scrnfail,Screen Failure,Scrnfail,Screen Failure,USA,2012-10-24,NA,>50,3,NA,NA,NA,NA,Y,2012-10-24T00:00:00Z,1,DS,DSSTDTC
CDISCPILOT01,01-716-1003,1003,NA,NA,NA,NA,NA,2014-03-29,NA,NA,716,79,YEARS,M,WHITE,HISPANIC OR LATINO,Scrnfail,Screen Failure,Scrnfail,Screen Failure,USA,2014-03-29,NA,>50,3,NA,NA,NA,NA,Y,2014-03-29T00:00:00Z,1,DS,DSSTDTC
CDISCPILOT01,01-716-1024,1024,2012-07-09,2013-01-20,2012-07-09,2013-01-20,NA,2013-01-20T11:10,NA,NA,716,87,YEARS,F,WHITE,NOT HISPANIC OR LATINO,Pbo,Placebo,Pbo,Placebo,USA,2012-07-06,-3,>50,3,2012-07-09T00:00:00Z,H,2013-01-20T23:59:59Z,H,Y,2013-01-20T23:59:59Z,NA,ADSL,TRTEDTM
CDISCPILOT01,01-716-1026,1026,2014-04-02,2014-10-16,2014-04-02,2014-10-16,NA,2014-10-16T13:35,NA,NA,716,73,YEARS,F,WHITE,NOT HISPANIC OR LATINO,Pbo,Placebo,Pbo,Placebo,USA,2014-03-23,-10,>50,3,2014-04-02T00:00:00Z,H,2014-10-16T23:59:59Z,H,Y,2014-10-16T23:59:59Z,NA,ADSL,TRTEDTM
CDISCPILOT01,01-716-1030,1030,2013-12-28,2014-01-10,2013-12-28,2014-01-02,NA,2014-01-10T12:30,NA,NA,716,83,YEARS,F,WHITE,NOT HISPANIC OR LATINO,Xan_Hi,Xanomeline High Dose,Xan_Lo,Xanomeline Low Dose,USA,2013-12-25,-3,>50,3,2013-12-28T00:00:00Z,H,2014-01-02T23:59:59Z,H,Y,2014-01-10T00:00:00Z,44,VS,VSDTC
CDISCPILOT01,01-716-1044,1044,2013-04-27,2013-11-03,2013-04-27,2013-11-03,NA,2013-11-03T13:10,NA,NA,716,74,YEARS,M,WHITE,NOT HISPANIC OR LATINO,Pbo,Placebo,Pbo,Placebo,USA,2013-04-20,-7,>50,3,2013-04-27T00:00:00Z,H,2013-11-03T23:59:59Z,H,Y,2013-11-03T23:59:59Z,NA,ADSL,TRTEDTM
CDISCPILOT01,01-716-1061,1061,NA,NA,NA,NA,NA,2014-02-14,NA,NA,716,81,YEARS,M,WHITE,NOT HISPANIC OR LATINO,Scrnfail,Screen Failure,Scrnfail,Screen Failure,USA,2014-02-14,NA,>50,3,NA,NA,NA,NA,Y,2014-02-14T00:00:00Z,1,DS,DSSTDTC
CDISCPILOT01,01-716-1063,1063,2013-05-09,2013-08-28,2013-05-09,2013-08-25,NA,2013-11-17,NA,NA,716,80,YEARS,M,WHITE,NOT HISPANIC OR LATINO,Xan_Lo,Xanomeline Low Dose,Xan_Lo,Xanomeline Low Dose,USA,2013-05-06,-3,>50,3,2013-05-09T00:00:00Z,H,2013-08-25T23:59:59Z,H,Y,2013-11-17T00:00:00Z,121,VS,VSDTC
CDISCPILOT01,01-716-1071,1071,2013-06-08,2013-08-01,2013-06-08,2013-08-01,NA,2013-12-16,NA,NA,716,78,YEARS,F,WHITE,NOT HISPANIC OR LATINO,Xan_Hi,Xanomeline High Dose,Xan_Hi,Xanomeline High Dose,USA,2013-06-03,-5,>50,3,2013-06-08T00:00:00Z,H,2013-08-01T23:59:59Z,H,Y,2013-12-16T00:00:00Z,101,VS,VSDTC
CDISCPILOT01,01-716-1094,1094,2012-12-19,2013-01-26,2012-12-19,2013-01-24,NA,2013-06-22,NA,NA,716,82,YEARS,M,WHITE,NOT HISPANIC OR LATINO,Xan_Lo,Xanomeline Low Dose,Xan_Lo,Xanomeline Low Dose,USA,2012-12-16,-3,>50,3,2012-12-19T00:00:00Z,H,2013-01-24T23:59:59Z,H,Y,2013-06-22T00:00:00Z,91,VS,VSDTC
CDISCPILOT01,01-716-1103,1103,2014-03-20,2014-09-20,2014-03-20,2014-09-20,NA,2014-09-20T12:10,NA,NA,716,79,YEARS,M,WHITE,NOT HISPANIC OR LATINO,Xan_Lo,Xanomeline Low Dose,Xan_Lo,Xanomeline Low Dose,USA,2014-03-18,-2,>50,3,2014-03-20T00:00:00Z,H,2014-09-20T23:59:59Z,H,Y,2014-09-20T23:59:59Z,NA,ADSL,TRTEDTM
CDISCPILOT01,01-716-1108,1108,2013-02-12,2013-08-10,2013-02-12,2013-08-10,NA,2013-08-10T09:55,NA,NA,716,86,YEARS,F,WHITE,NOT HISPANIC OR LATINO,Pbo,Placebo,Pbo,Placebo,USA,2013-02-04,-8,>50,3,2013-02-12T00:00:00Z,H,2013-08-10T23:59:59Z,H,Y,2013-08-10T23:59:59Z,NA,ADSL,TRTEDTM
CDISCPILOT01,01-716-1151,1151,2013-02-01,2013-06-07,2013-02-01,2013-05-11,NA,2013-08-13,NA,NA,716,83,YEARS,F,WHITE,NOT HISPANIC OR LATINO,Xan_Lo,Xanomeline Low Dose,Xan_Lo,Xanomeline Low Dose,USA,2013-01-23,-9,>50,3,2013-02-01T00:00:00Z,H,2013-05-11T23:59:59Z,H,Y,2013-08-13T00:00:00Z,121,VS,VSDTC
CDISCPILOT01,01-716-1157,1157,2013-10-02,2014-04-05,2013-10-02,2014-04-04,NA,2014-04-05T11:10,NA,NA,716,85,YEARS,M,WHITE,NOT HISPANIC OR LATINO,Xan_Lo,Xanomeline Low Dose,Xan_Lo,Xanomeline Low Dose,USA,2013-09-23,-9,>50,3,2013-10-02T00:00:00Z,H,2014-04-04T23:59:59Z,H,Y,2014-04-05T00:00:00Z,152,VS,VSDTC
CDISCPILOT01,01-716-1160,1160,2013-04-05,2013-10-11,2013-04-05,2013-10-11,NA,2013-10-11T13:30,NA,NA,716,83,YEARS,F,WHITE,NOT HISPANIC OR LATINO,Pbo,Placebo,Pbo,Placebo,USA,2013-03-23,-13,>50,3,2013-04-05T00:00:00Z,H,2013-10-11T23:59:59Z,H,Y,2013-10-11T23:59:59Z,NA,ADSL,TRTEDTM
CDISCPILOT01,01-716-1167,1167,2012-10-08,2013-04-13,2012-10-08,2013-04-12,NA,2013-04-13T11:10,NA,NA,716,68,YEARS,M,WHITE,NOT HISPANIC OR LATINO,Xan_Lo,Xanomeline Low Dose,Xan_Lo,Xanomeline Low Dose,USA,2012-09-30,-8,>50,3,2012-10-08T00:00:00Z,H,2013-04-12T23:59:59Z,H,Y,2013-04-13T00:00:00Z,151,VS,VSDTC
CDISCPILOT01,01-716-1177,1177,2014-09-02,2015-03-05,2014-09-02,2015-03-05,NA,2015-03-05T14:40,NA,NA,716,72,YEARS,M,WHITE,NOT HISPANIC OR LATINO,Pbo,Placebo,Pbo,Placebo,USA,2014-08-29,-4,>50,3,2014-09-02T00:00:00Z,H,2015-03-05T23:59:59Z,H,Y,2015-03-05T23:59:59Z,NA,ADSL,TRTEDTM
CDISCPILOT01,01-716-1189,1189,2012-10-09,2013-03-03,2012-10-09,2013-02-27,NA,2013-04-08,NA,NA,716,81,YEARS,M,WHITE,NOT HISPANIC OR LATINO,Xan_Hi,Xanomeline High Dose,Xan_Hi,Xanomeline High Dose,USA,2012-10-07,-2,>50,3,2012-10-09T00:00:00Z,H,2013-02-27T23:59:59Z,H,Y,2013-04-08T00:00:00Z,131,VS,VSDTC
CDISCPILOT01,01-716-1229,1229,2013-02-20,2013-04-02,2013-02-20,2013-03-31,NA,2013-04-02T11:15,NA,NA,716,73,YEARS,F,WHITE,NOT HISPANIC OR LATINO,Xan_Hi,Xanomeline High Dose,Xan_Hi,Xanomeline High Dose,USA,2013-02-14,-6,>50,3,2013-02-20T00:00:00Z,H,2013-03-31T23:59:59Z,H,Y,2013-04-02T00:00:00Z,86,VS,VSDTC
CDISCPILOT01,01-716-1244,1244,NA,NA,NA,NA,NA,2013-09-03,NA,NA,716,72,YEARS,F,WHITE,NOT HISPANIC OR LATINO,Scrnfail,Screen Failure,Scrnfail,Screen Failure,USA,2013-08-15,NA,>50,3,NA,NA,NA,NA,Y,2013-08-15T00:00:00Z,1,DS,DSSTDTC
CDISCPILOT01,01-716-1298,1298,2013-04-08,2013-07-06,2013-04-08,2013-06-28,NA,2013-10-07,NA,NA,716,76,YEARS,F,WHITE,NOT HISPANIC OR LATINO,Xan_Lo,Xanomeline Low Dose,Xan_Lo,Xanomeline Low Dose,USA,2013-04-04,-4,>50,3,2013-04-08T00:00:00Z,H,2013-06-28T23:59:59Z,H,Y,2013-10-07T00:00:00Z,91,VS,VSDTC
CDISCPILOT01,01-716-1305,1305,NA,NA,NA,NA,NA,2013-08-28,NA,NA,716,73,YEARS,F,WHITE,NOT HISPANIC OR LATINO,Scrnfail,Screen Failure,Scrnfail,Screen Failure,USA,2013-08-06,NA,>50,3,NA,NA,NA,NA,Y,2013-08-06T00:00:00Z,1,DS,DSSTDTC
CDISCPILOT01,01-716-1308,1308,2013-08-28,2013-10-07,2013-08-28,2013-10-07,NA,2013-10-07T15:50,NA,NA,716,76,YEARS,F,WHITE,NOT HISPANIC OR LATINO,Pbo,Placebo,Pbo,Placebo,USA,2013-08-23,-5,>50,3,2013-08-28T00:00:00Z,H,2013-10-07T23:59:59Z,H,Y,2013-10-07T23:59:59Z,NA,ADSL,TRTEDTM
CDISCPILOT01,01-716-1311,1311,2014-05-14,2014-09-30,2014-05-14,2014-09-21,NA,2014-11-15,NA,NA,716,78,YEARS,M,WHITE,NOT HISPANIC OR LATINO,Xan_Lo,Xanomeline Low Dose,Xan_Lo,Xanomeline Low Dose,USA,2014-05-08,-6,>50,3,2014-05-14T00:00:00Z,H,2014-09-21T23:59:59Z,H,Y,2014-11-15T00:00:00Z,101,VS,VSDTC
CDISCPILOT01,01-716-1331,1331,NA,NA,NA,NA,NA,2013-11-25,NA,NA,716,59,YEARS,F,WHITE,NOT HISPANIC OR LATINO,Scrnfail,Screen Failure,Scrnfail,Screen Failure,USA,2013-11-25,NA,>50,3,NA,NA,NA,NA,Y,2013-11-25T00:00:00Z,1,DS,DSSTDTC
CDISCPILOT01,01-716-1364,1364,2013-07-04,2014-01-09,2013-07-04,2014-01-09,NA,2014-01-09T15:30,NA,NA,716,84,YEARS,F,WHITE,NOT HISPANIC OR LATINO,Xan_Hi,Xanomeline High Dose,Xan_Hi,Xanomeline High Dose,USA,2013-06-27,-7,>50,3,2013-07-04T00:00:00Z,H,2014-01-09T23:59:59Z,H,Y,2014-01-09T23:59:59Z,NA,ADSL,TRTEDTM
CDISCPILOT01,01-716-1373,1373,2012-12-14,2013-02-28,2012-12-14,2013-02-27,NA,2013-02-28T10:23,NA,NA,716,74,YEARS,M,WHITE,NOT HISPANIC OR LATINO,Xan_Hi,Xanomeline High Dose,Xan_Hi,Xanomeline High Dose,USA,2012-11-24,-20,>50,3,2012-12-14T00:00:00Z,H,2013-02-27T23:59:59Z,H,Y,2013-02-28T00:00:00Z,108,VS,VSDTC
CDISCPILOT01,01-716-1418,1418,2013-05-05,2013-11-20,2013-05-05,2013-11-20,NA,2013-11-20T11:44,NA,NA,716,80,YEARS,F,WHITE,NOT HISPANIC OR LATINO,Xan_Hi,Xanomeline High Dose,Xan_Hi,Xanomeline High Dose,USA,2013-04-27,-8,>50,3,2013-05-05T00:00:00Z,H,2013-11-20T23:59:59Z,H,Y,2013-11-20T23:59:59Z,NA,ADSL,TRTEDTM
CDISCPILOT01,01-716-1441,1441,2014-01-22,2014-07-22,2014-01-22,2014-07-22,NA,2014-07-22T10:00,NA,NA,716,85,YEARS,M,WHITE,NOT HISPANIC OR LATINO,Pbo,Placebo,Pbo,Placebo,USA,2014-01-13,-9,>50,3,2014-01-22T00:00:00Z,H,2014-07-22T23:59:59Z,H,Y,2014-07-22T23:59:59Z,NA,ADSL,TRTEDTM
CDISCPILOT01,01-716-1447,1447,2013-12-16,2014-06-17,2013-12-16,2014-06-17,NA,2014-06-17T12:00,NA,NA,716,72,YEARS,F,WHITE,NOT HISPANIC OR LATINO,Xan_Hi,Xanomeline High Dose,Xan_Hi,Xanomeline High Dose,USA,2013-12-10,-6,>50,3,2013-12-16T00:00:00Z,H,2014-06-17T23:59:59Z,H,Y,2014-06-17T23:59:59Z,NA,ADSL,TRTEDTM
CDISCPILOT01,01-717-1004,1004,2014-01-14,2014-07-16,2014-01-14,2014-07-16,NA,2014-07-16T13:21,NA,NA,717,80,YEARS,F,WHITE,NOT HISPANIC OR LATINO,Xan_Lo,Xanomeline Low Dose,Xan_Lo,Xanomeline Low Dose,USA,2014-01-01,-13,>50,3,2014-01-14T00:00:00Z,H,2014-07-16T23:59:59Z,H,Y,2014-07-16T23:59:59Z,NA,ADSL,TRTEDTM
CDISCPILOT01,01-717-1109,1109,2014-01-27,2014-07-28,2014-01-27,2014-07-28,NA,2014-07-28T10:53,NA,NA,717,84,YEARS,M,WHITE,NOT HISPANIC OR LATINO,Xan_Hi,Xanomeline High Dose,Xan_Hi,Xanomeline High Dose,USA,2014-01-20,-7,>50,3,2014-01-27T00:00:00Z,H,2014-07-28T23:59:59Z,H,Y,2014-07-28T23:59:59Z,NA,ADSL,TRTEDTM
CDISCPILOT01,01-717-1174,1174,2013-01-22,2013-07-24,2013-01-22,2013-07-24,NA,2013-07-24T15:15,NA,NA,717,73,YEARS,M,WHITE,NOT HISPANIC OR LATINO,Xan_Hi,Xanomeline High Dose,Xan_Hi,Xanomeline High Dose,USA,2013-01-16,-6,>50,3,2013-01-22T00:00:00Z,H,2013-07-24T23:59:59Z,H,Y,2013-07-24T23:59:59Z,NA,ADSL,TRTEDTM
CDISCPILOT01,01-717-1201,1201,2013-12-19,2014-02-21,2013-12-19,2014-02-21,NA,2014-02-21T11:14,NA,NA,717,85,YEARS,F,WHITE,NOT HISPANIC OR LATINO,Pbo,Placebo,Pbo,Placebo,USA,2013-12-12,-7,>50,3,2013-12-19T00:00:00Z,H,2014-02-21T23:59:59Z,H,Y,2014-02-21T23:59:59Z,NA,ADSL,TRTEDTM
CDISCPILOT01,01-717-1344,1344,2014-01-11,2014-03-14,2014-01-11,2014-03-14,NA,2014-03-14T14:14,NA,NA,717,64,YEARS,F,WHITE,NOT HISPANIC OR LATINO,Pbo,Placebo,Pbo,Placebo,USA,2014-01-01,-10,>50,3,2014-01-11T00:00:00Z,H,2014-03-14T23:59:59Z,H,Y,2014-03-14T23:59:59Z,NA,ADSL,TRTEDTM
CDISCPILOT01,01-717-1357,1357,2013-05-01,2013-10-20,2013-05-01,2013-10-14,NA,2013-10-20T10:52,NA,NA,717,77,YEARS,M,WHITE,NOT HISPANIC OR LATINO,Xan_Hi,Xanomeline High Dose,Xan_Hi,Xanomeline High Dose,USA,2013-04-21,-10,>50,3,2013-05-01T00:00:00Z,H,2013-10-14T23:59:59Z,H,Y,2013-10-20T00:00:00Z,121,VS,VSDTC
CDISCPILOT01,01-717-1446,1446,2013-09-01,2014-03-04,2013-09-01,2014-03-03,NA,2014-03-17T09:52,NA,NA,717,75,YEARS,F,WHITE,NOT HISPANIC OR LATINO,Xan_Lo,Xanomeline Low Dose,Xan_Lo,Xanomeline Low Dose,USA,2013-08-20,-12,>50,3,2013-09-01T00:00:00Z,H,2014-03-03T23:59:59Z,H,Y,2014-03-17T00:00:00Z,3,DS,DSSTDTC
CDISCPILOT01,01-718-1066,1066,2013-07-07,2013-07-30,2013-07-07,2013-07-16,NA,2014-01-13,NA,NA,718,79,YEARS,F,WHITE,NOT HISPANIC OR LATINO,Xan_Lo,Xanomeline Low Dose,Xan_Lo,Xanomeline Low Dose,USA,2013-06-28,-9,>50,3,2013-07-07T00:00:00Z,H,2013-07-16T23:59:59Z,H,Y,2013-07-30T00:00:00Z,44,VS,VSDTC
CDISCPILOT01,01-718-1079,1079,2012-09-19,2012-11-06,2012-09-19,2012-10-31,NA,2013-03-05,NA,NA,718,67,YEARS,F,WHITE,NOT HISPANIC OR LATINO,Xan_Lo,Xanomeline Low Dose,Xan_Lo,Xanomeline Low Dose,USA,2012-09-11,-8,>50,3,2012-09-19T00:00:00Z,H,2012-10-31T23:59:59Z,H,Y,2013-03-05T00:00:00Z,91,VS,VSDTC
CDISCPILOT01,01-718-1101,1101,2013-02-17,2013-08-02,2013-02-17,2013-07-31,NA,2013-08-02T11:30,NA,NA,718,82,YEARS,M,BLACK OR AFRICAN AMERICAN,NOT HISPANIC OR LATINO,Xan_Hi,Xanomeline High Dose,Xan_Hi,Xanomeline High Dose,USA,2013-02-01,-16,>50,3,2013-02-17T00:00:00Z,H,2013-07-31T23:59:59Z,H,Y,2013-08-02T00:00:00Z,141,VS,VSDTC
CDISCPILOT01,01-718-1139,1139,2013-05-19,2013-11-17,2013-05-19,2013-11-17,NA,2013-11-17T10:30,NA,NA,718,77,YEARS,M,WHITE,NOT HISPANIC OR LATINO,Pbo,Placebo,Pbo,Placebo,USA,2013-05-03,-16,>50,3,2013-05-19T00:00:00Z,H,2013-11-17T23:59:59Z,H,Y,2013-11-17T23:59:59Z,NA,ADSL,TRTEDTM
CDISCPILOT01,01-718-1150,1150,2013-01-19,2013-07-31,2013-01-19,2013-07-29,NA,2013-07-31T14:05,NA,NA,718,73,YEARS,F,WHITE,NOT HISPANIC OR LATINO,Pbo,Placebo,Pbo,Placebo,USA,2013-01-12,-7,>50,3,2013-01-19T00:00:00Z,H,2013-07-29T23:59:59Z,H,Y,2013-07-31T00:00:00Z,130,VS,VSDTC
CDISCPILOT01,01-718-1170,1170,2013-09-16,2013-11-03,2013-09-16,2013-10-12,NA,2014-03-15,NA,NA,718,80,YEARS,F,WHITE,NOT HISPANIC OR LATINO,Xan_Lo,Xanomeline Low Dose,Xan_Lo,Xanomeline Low Dose,USA,2013-08-25,-22,>50,3,2013-09-16T00:00:00Z,H,2013-10-12T23:59:59Z,H,Y,2014-03-15T00:00:00Z,71,VS,VSDTC
CDISCPILOT01,01-718-1172,1172,2013-09-21,2013-11-29,2013-09-21,2013-11-29,NA,2014-03-21,NA,NA,718,74,YEARS,M,WHITE,NOT HISPANIC OR LATINO,Pbo,Placebo,Pbo,Placebo,USA,2013-09-15,-6,>50,3,2013-09-21T00:00:00Z,H,2013-11-29T23:59:59Z,H,Y,2014-03-21T00:00:00Z,111,VS,VSDTC
CDISCPILOT01,01-718-1250,1250,2013-09-21,2014-02-08,2013-09-21,2014-01-31,NA,2014-03-08,NA,NA,718,82,YEARS,F,WHITE,HISPANIC OR LATINO,Xan_Lo,Xanomeline Low Dose,Xan_Lo,Xanomeline Low Dose,USA,2013-08-21,-31,>50,3,2013-09-21T00:00:00Z,H,2014-01-31T23:59:59Z,H,Y,2014-03-08T00:00:00Z,131,VS,VSDTC
CDISCPILOT01,01-718-1254,1254,2013-07-10,2014-01-09,2013-07-10,2014-01-09,NA,2014-01-09T11:10,NA,NA,718,78,YEARS,M,WHITE,HISPANIC OR LATINO,Xan_Lo,Xanomeline Low Dose,Xan_Lo,Xanomeline Low Dose,USA,2013-06-28,-12,>50,3,2013-07-10T00:00:00Z,H,2014-01-09T23:59:59Z,H,Y,2014-01-09T23:59:59Z,NA,ADSL,TRTEDTM
CDISCPILOT01,01-718-1328,1328,2013-02-01,2013-05-01,2013-02-01,2013-04-18,NA,2013-07-24,NA,NA,718,86,YEARS,M,WHITE,NOT HISPANIC OR LATINO,Xan_Hi,Xanomeline High Dose,Xan_Hi,Xanomeline High Dose,USA,2013-01-28,-4,>50,3,2013-02-01T00:00:00Z,H,2013-04-18T23:59:59Z,H,Y,2013-07-24T00:00:00Z,101,VS,VSDTC
CDISCPILOT01,01-718-1355,1355,2013-02-28,2013-08-29,2013-02-28,2013-08-29,NA,2013-08-29T14:00,NA,NA,718,79,YEARS,M,WHITE,NOT HISPANIC OR LATINO,Pbo,Placebo,Pbo,Placebo,USA,2013-02-12,-16,>50,3,2013-02-28T00:00:00Z,H,2013-08-29T23:59:59Z,H,Y,2013-08-29T23:59:59Z,NA,ADSL,TRTEDTM
CDISCPILOT01,01-718-1371,1371,2013-04-26,2013-08-08,2013-04-26,2013-08-01,NA,2013-08-08,NA,NA,718,69,YEARS,F,WHITE,NOT HISPANIC OR LATINO,Xan_Hi,Xanomeline High Dose,Xan_Hi,Xanomeline High Dose,USA,2013-04-11,-15,>50,3,2013-04-26T00:00:00Z,H,2013-08-01T23:59:59Z,H,Y,2013-08-08T00:00:00Z,101,VS,VSDTC
CDISCPILOT01,01-718-1427,1427,2012-12-17,2013-02-18,2012-12-17,2013-02-11,NA,2013-06-03,NA,NA,718,74,YEARS,F,BLACK OR AFRICAN AMERICAN,NOT HISPANIC OR LATINO,Xan_Hi,Xanomeline High Dose,Xan_Hi,Xanomeline High Dose,USA,2012-12-13,-4,>50,3,2012-12-17T00:00:00Z,H,2013-02-11T23:59:59Z,H,Y,2013-06-03T00:00:00Z,101,VS,VSDTC
